Folder: ECSHackWeek_Dallas/tutorials/data/eis (part 7)

File: NCA_2_Pristine_15C.txt
Index,Frequency (Hz),Z' (Ω),-Z'' (Ω),Z (Ω),-Phase (°),Time (s)
1,1000000,1.23726,-1.22197,1.73898,-44.6439,18.9466
2,794330,0.918697,-1.14428,1.46744,-51.2403,22.2774
3,630960,0.691402,-1.0134,1.22679,-55.696,25.6047
4,501190,0.517098,-0.876205,1.01741,-59.4527,28.9607
5,398110,0.39121,-0.743675,0.840296,-62.2534,33.5984
6,316230,0.300997,-0.6214,0.690462,-64.1552,38.0272
7,251190,0.236354,-0.514417,0.566117,-65.3231,41.1429
8,199530,0.193041,-0.42419,0.466049,-65.5306,42.8753
9,158490,0.160869,-0.34868,0.384001,-65.233,44.6986
10,125890,0.137441,-0.285879,0.317201,-64.3233,46.4462
11,100000,0.120109,-0.233742,0.262796,-62.8035,49.6668
12,79433,0.107467,-0.190798,0.218982,-60.6096,51.2955
13,63096,0.0981352,-0.155427,0.183816,-57.7321,53.1532
14,50119,0.0911568,-0.126286,0.155749,-54.1772,54.9792
15,39811,0.0859995,-0.102469,0.133775,-49.9941,56.7996
16,31623,0.0821695,-0.0830922,0.11686,-45.3199,58.6207
17,25119,0.0792648,-0.0672998,0.103982,-40.3329,60.3713
18,19953,0.0766223,-0.0541856,0.093846,-35.2671,62.2042
19,15849,0.0748649,-0.0436719,0.0866717,-30.2569,63.9363
20,12589,0.0735073,-0.0350302,0.0814275,-25.4803,65.7264
21,10000,0.0727046,-0.027941,0.0778887,-21.0222,68.8719
22,7943.3,0.0720179,-0.0220504,0.075318,-17.0235,70.5182
23,6309.6,0.0716417,-0.0172038,0.0736783,-13.5031,72.2852
24,5011.9,0.071105,-0.0131426,0.0723094,-10.472,74.0102
25,3981.1,0.0711293,-0.00987558,0.0718116,-7.90441,75.7155
26,3162.3,0.0712412,-0.0071636,0.0716005,-5.74203,77.4291
27,2511.9,0.0714232,-0.00491122,0.0715919,-3.9336,79.2006
28,1995.3,0.0717298,-0.00304521,0.0717944,-2.43097,80.913
29,1584.9,0.0720977,-0.0014907,0.0721131,-1.18448,82.5888
30,1258.9,0.0725492,-0.000184831,0.0725495,-0.14597,84.3254
31,1000,0.0733214,0.000959629,0.0733277,0.749843,86.0557
32,794.33,0.073902,0.00190399,0.0739266,1.47582,87.8771
33,630.96,0.0745645,0.00272384,0.0746143,2.09208,89.5933
34,501.19,0.0749006,0.00342241,0.0749787,2.61618,91.3682
35,398.11,0.0756438,0.0040637,0.0757529,3.07506,93.0961
36,316.23,0.0764717,0.00464206,0.0766124,3.47376,94.8415
37,251.19,0.0772914,0.00516458,0.0774638,3.82279,96.6035
38,199.53,0.0782939,0.00564848,0.0784974,4.12643,98.3621
39,158.49,0.0792279,0.00607743,0.0794607,4.38647,100.124
40,125.89,0.0802453,0.00646739,0.0805055,4.60781,101.919
41,100,0.0813472,0.00683214,0.0816336,4.80086,103.721
42,79.433,0.0824075,0.00713665,0.0827159,4.94958,105.549
43,63.096,0.0835374,0.00742258,0.0838665,5.07759,107.413
44,50.119,0.0846819,0.00768613,0.08503,5.18623,109.486
45,39.811,0.0858403,0.00794088,0.0862068,5.28525,111.461
46,31.623,0.0870139,0.00819283,0.0873987,5.37885,113.504
47,25.119,0.088181,0.00844441,0.0885844,5.4701,115.588
48,19.953,0.0893658,0.00868917,0.0897872,5.5535,117.912
49,15.849,0.0906501,0.00895721,0.0910916,5.64312,120.254
50,12.589,0.0918548,0.00924832,0.0923192,5.7494,122.724
51,10,0.0930572,0.00957456,0.0935485,5.87444,125.435
52,7.9433,0.09423,0.00998257,0.0947573,6.04726,128.145
53,6.3096,0.0953432,0.0104943,0.0959191,6.2812,130.993
54,5.0119,0.0963947,0.0111834,0.0970413,6.61766,133.782
55,3.9811,0.0975035,0.0121116,0.0982529,7.08082,136.653
56,3.1623,0.0985519,0.0133575,0.099453,7.71869,139.6
57,2.5119,0.0996106,0.0149726,0.10073,8.5482,142.632
58,1.9953,0.101255,0.017164,0.1027,9.6209,145.718
59,1.5849,0.1026,0.0197892,0.104491,10.917,148.901
60,1.2589,0.104155,0.0231368,0.106694,12.5242,152.202
61,1,0.106047,0.0272214,0.109485,14.3966,155.886
62,0.79433,0.108653,0.0320439,0.113279,16.4318,159.521
63,0.63096,0.111686,0.0378498,0.117925,18.7213,163.407
64,0.50119,0.115687,0.0449099,0.124098,21.2164,167.65
65,0.39811,0.12072,0.0527673,0.131749,23.6103,172.327
66,0.31623,0.127586,0.061644,0.141698,25.7878,177.515
67,0.25119,0.136275,0.0718571,0.154059,27.8025,183.339
68,0.19953,0.147121,0.0814948,0.168185,28.9833,189.96
69,0.15849,0.160596,0.091629,0.184897,29.7072,197.663
70,0.12589,0.176396,0.101621,0.203574,29.9461,206.68
71,0.1,0.195644,0.11055,0.224717,29.4689,217.3

File: NCA_2_Pristine_25C.txt
Index,Frequency (Hz),Z' (Ω),-Z'' (Ω),Z (Ω),-Phase (°),Time (s)
1,1000000,1.31927,-1.34036,1.8807,-45.4544,18.932
2,794330,0.976076,-1.24774,1.58417,-51.9648,20.7843
3,630960,0.731995,-1.10079,1.32195,-56.3771,22.6437
4,501190,0.546813,-0.950947,1.09695,-60.1003,26.0319
5,398110,0.412476,-0.806437,0.905802,-62.9112,30.622
6,316230,0.316071,-0.67395,0.744385,-64.8742,33.7289
7,251190,0.246868,-0.558092,0.610255,-66.1381,36.8639
8,199530,0.200326,-0.460822,0.502482,-66.5047,40.0796
9,158490,0.165614,-0.379366,0.41394,-66.416,41.8099
10,125890,0.140164,-0.311635,0.341705,-65.7832,43.5109
11,100000,0.121203,-0.2557,0.282971,-64.6389,46.7058
12,79433,0.107057,-0.209599,0.235357,-62.9435,48.3399
13,63096,0.0962672,-0.171547,0.196712,-60.7001,50.1576
14,50119,0.0879611,-0.140155,0.165471,-57.8877,51.9892
15,39811,0.0816105,-0.1144,0.140526,-54.4968,53.8406
16,31623,0.0767372,-0.0932508,0.120766,-50.5486,55.6601
17,25119,0.0729531,-0.0758345,0.105228,-46.1095,57.4078
18,19953,0.069709,-0.0612812,0.0928156,-41.3187,59.1285
19,15849,0.0674878,-0.0495441,0.0837211,-36.2831,60.8679
20,12589,0.0657596,-0.0398315,0.0768822,-31.2039,62.6849
21,10000,0.0645729,-0.0318713,0.07201,-26.2696,65.9249
22,7943.3,0.0637684,-0.0252979,0.0686032,-21.639,67.5653
23,6309.6,0.0632805,-0.0199007,0.066336,-17.4575,69.2755
24,5011.9,0.0627013,-0.015402,0.0645653,-13.801,71.0011
25,3981.1,0.0626171,-0.0118021,0.0637196,-10.6739,72.7272
26,3162.3,0.0626858,-0.00886416,0.0633094,-8.04861,74.4238
27,2511.9,0.0628275,-0.00643561,0.0631563,-5.84858,76.2471
28,1995.3,0.0630257,-0.00444372,0.0631822,-4.03304,77.9735
29,1584.9,0.0633251,-0.00281141,0.0633875,-2.54206,79.6898
30,1258.9,0.0636613,-0.00146782,0.0636782,-1.32082,81.3868
31,1000,0.0642452,-0.000298306,0.0642459,-0.266036,83.1028
32,794.33,0.0647251,0.000603195,0.0647279,0.533944,84.9457
33,630.96,0.0649784,0.0013392,0.0649922,1.18069,86.6474
34,501.19,0.0655069,0.00196119,0.0655363,1.71485,88.3744
35,398.11,0.066059,0.0024814,0.0661056,2.15121,90.0714
36,316.23,0.0666655,0.00291969,0.0667294,2.50773,91.8286
37,251.19,0.0673166,0.00328671,0.0673968,2.79522,93.614
38,199.53,0.0679279,0.00359663,0.068023,3.03085,95.3301
39,158.49,0.0686252,0.00386427,0.0687339,3.22291,97.0725
40,125.89,0.0692853,0.00409847,0.0694065,3.3853,98.8852
41,100,0.0699793,0.00431443,0.0701122,3.52799,100.658
42,79.433,0.0706645,0.00449839,0.0708076,3.64244,102.48
43,63.096,0.0713673,0.00466871,0.0715199,3.74285,104.386
44,50.119,0.072024,0.00482541,0.0721855,3.83293,106.445
45,39.811,0.0727779,0.00497837,0.072948,3.91322,108.383
46,31.623,0.073511,0.00512654,0.0736895,3.98926,110.408
47,25.119,0.0742123,0.00527085,0.0743992,4.06255,112.478
48,19.953,0.0749216,0.00541084,0.0751167,4.13073,114.75
49,15.849,0.0756264,0.00558852,0.0758326,4.22628,117.108
50,12.589,0.0762489,0.0058114,0.0764701,4.35844,119.573
51,10,0.0768637,0.00612815,0.0771076,4.55841,122.256
52,7.9433,0.0774253,0.00656741,0.0777033,4.84837,124.975
53,6.3096,0.0780014,0.00717906,0.078331,5.25855,127.789
54,5.0119,0.0785278,0.0079951,0.0789338,5.81339,130.59
55,3.9811,0.0791336,0.00906929,0.0796517,6.53798,133.406
56,3.1623,0.0798015,0.010456,0.0804836,7.46468,136.364
57,2.5119,0.0806235,0.0121982,0.081541,8.6035,139.361
58,1.9953,0.081607,0.0143527,0.0828596,9.97495,142.435
59,1.5849,0.0828742,0.0169469,0.0845891,11.5571,145.561
60,1.2589,0.0844689,0.0200805,0.0868229,13.3725,148.841
61,1,0.0865928,0.0237117,0.0897807,15.3139,152.492
62,0.79433,0.0893248,0.027947,0.0935947,17.3733,156.232
63,0.63096,0.0928775,0.0327081,0.0984685,19.4004,160.12
64,0.50119,0.0975148,0.0378844,0.104615,21.2311,164.338
65,0.39811,0.103946,0.0436589,0.112743,22.7831,169.045
66,0.31623,0.111197,0.0491372,0.12157,23.8402,174.257
67,0.25119,0.120022,0.0538971,0.131568,24.1829,180.069
68,0.19953,0.1302,0.0581889,0.142612,24.0807,186.671
69,0.15849,0.141082,0.0612986,0.153823,23.4844,194.415
70,0.12589,0.15266,0.0624938,0.164956,22.2625,203.419
71,0.1,0.163754,0.062685,0.175342,20.9468,214.065

File: NCA_2_Pristine_35C.txt
Index,Frequency (Hz),Z' (Ω),-Z'' (Ω),Z (Ω),-Phase (°),Time (s)
1,1000000,1.40827,-1.37401,1.96752,-44.2946,19.0494
2,794330,1.05449,-1.28327,1.66095,-50.5893,20.925
3,630960,0.803738,-1.14337,1.3976,-54.8944,24.3487
4,501190,0.608242,-0.994568,1.16581,-58.5515,27.6848
5,398110,0.464621,-0.850354,0.969007,-61.3485,32.2856
6,316230,0.35964,-0.717482,0.802571,-63.3775,35.4258
7,251190,0.281895,-0.59961,0.662568,-64.8204,38.5413
8,199530,0.227804,-0.499562,0.549051,-65.4866,40.2896
9,158490,0.186136,-0.414673,0.454533,-65.826,42.1117
10,125890,0.154789,-0.342837,0.376161,-65.7011,43.8192
11,100000,0.131184,-0.282331,0.31132,-65.0783,47.0761
12,79433,0.113581,-0.231519,0.257879,-63.8678,48.7928
13,63096,0.10048,-0.189088,0.214127,-62.0142,50.6185
14,50119,0.0909108,-0.154082,0.178903,-59.4588,52.52
15,39811,0.0839034,-0.125247,0.150754,-56.1818,54.3507
16,31623,0.0787253,-0.101606,0.128536,-52.2311,56.0685
17,25119,0.0748943,-0.0823232,0.111294,-47.7054,57.8959
18,19953,0.072013,-0.0665874,0.0980803,-42.7583,59.6396
19,15849,0.0694751,-0.0534915,0.0876819,-37.594,61.4526
20,12589,0.0678418,-0.0429889,0.0803154,-32.361,63.2599
21,10000,0.0666516,-0.0343604,0.0749871,-27.2721,66.532
22,7943.3,0.0658587,-0.0273097,0.0712965,-22.5224,68.143
23,6309.6,0.0654054,-0.0215743,0.0688717,-18.2554,69.8654
24,5011.9,0.0648221,-0.0168169,0.066968,-14.5437,71.6741
25,3981.1,0.0647725,-0.0130479,0.0660736,-11.3893,73.3813
26,3162.3,0.0647882,-0.00997755,0.065552,-8.75492,75.0923
27,2511.9,0.064878,-0.0074687,0.0653064,-6.56694,76.9135
28,1995.3,0.0650456,-0.00543785,0.0652725,-4.77885,78.6286
29,1584.9,0.065227,-0.00379581,0.0653373,-3.3305,80.3144
30,1258.9,0.0654987,-0.0024726,0.0655454,-2.16191,82.0199
31,1000,0.0660134,-0.00134379,0.066027,-1.16617,83.751
32,794.33,0.0663822,-0.000502719,0.0663841,-0.433898,85.574
33,630.96,0.0664303,0.000165594,0.0664305,0.142823,87.2854
34,501.19,0.0668181,0.000711491,0.0668219,0.610073,89.0082
35,398.11,0.067231,0.00115439,0.0672409,0.983702,90.7663
36,316.23,0.0676347,0.00151447,0.0676517,1.28275,92.5091
37,251.19,0.0680484,0.00181404,0.0680725,1.52703,94.2646
38,199.53,0.0684328,0.00206803,0.0684641,1.73095,95.9963
39,158.49,0.0688715,0.00228341,0.0689093,1.89893,97.7681
40,125.89,0.0693255,0.00246939,0.0693695,2.04003,99.5598
41,100,0.0697661,0.00263574,0.0698159,2.16358,101.334
42,79.433,0.0701865,0.0027602,0.0702408,2.25209,103.173
43,63.096,0.0706298,0.00286259,0.0706878,2.3209,105.036
44,50.119,0.0710967,0.00295414,0.071158,2.37933,107.11
45,39.811,0.0714541,0.00303538,0.0715186,2.43247,109.073
46,31.623,0.0719197,0.00312963,0.0719877,2.49169,111.096
47,25.119,0.0723013,0.00324399,0.072374,2.56901,113.181
48,19.953,0.0726257,0.0033803,0.0727043,2.66486,115.476
49,15.849,0.073013,0.00358547,0.073101,2.81138,117.817
50,12.589,0.0733411,0.00386332,0.0734428,3.01533,120.274
51,10,0.0736957,0.00423709,0.0738174,3.29057,123.005
52,7.9433,0.0740774,0.00473247,0.0742284,3.6554,125.705
53,6.3096,0.0744647,0.00537122,0.0746582,4.12566,128.516
54,5.0119,0.0749158,0.00618131,0.0751703,4.7168,131.286
55,3.9811,0.0754797,0.00717884,0.0758203,5.43304,134.111
56,3.1623,0.0761687,0.00839143,0.0766295,6.28687,136.961
57,2.5119,0.0770431,0.00983697,0.0776685,7.27624,139.902
58,1.9953,0.0781794,0.0115161,0.079023,8.37957,142.974
59,1.5849,0.0796914,0.0134171,0.080813,9.55685,146.1
60,1.2589,0.0815339,0.0155221,0.0829983,10.7787,149.436
61,1,0.0839182,0.0177268,0.0857701,11.9277,153.08
62,0.79433,0.0869013,0.0199169,0.0891545,12.9087,156.731
63,0.63096,0.0904307,0.0219644,0.0930599,13.652,160.634
64,0.50119,0.0945177,0.0237406,0.0974536,14.0997,164.873
65,0.39811,0.0990042,0.0249663,0.102104,14.1534,169.57
66,0.31623,0.104202,0.0257289,0.107331,13.8697,174.773
67,0.25119,0.108919,0.0259429,0.111966,13.3974,180.599
68,0.19953,0.113477,0.0253367,0.116272,12.5863,187.285
69,0.15849,0.117643,0.0245149,0.12017,11.7711,194.982
70,0.12589,0.12139,0.0235848,0.12366,10.995,203.914
71,0.1,0.124999,0.0225708,0.127021,10.2355,214.495

File: NCA_3_Pristine_5C.txt
Index,Frequency (Hz),Z' (Ω),-Z'' (Ω),Z (Ω),-Phase (°),Time (s)
1,1000000,1.36862,-1.41884,1.97135,-46.0321,23.6231
2,794330,1.00652,-1.31808,1.65844,-52.6336,25.5131
3,630960,0.749111,-1.16176,1.38234,-57.1858,28.9223
4,501190,0.553804,-0.999212,1.14242,-61.003,32.2355
5,398110,0.414012,-0.843893,0.939979,-63.8675,36.8635
6,316230,0.315063,-0.702526,0.76994,-65.8451,39.9794
7,251190,0.244669,-0.579365,0.628909,-67.1054,43.0901
8,199530,0.198062,-0.476846,0.516343,-67.444,46.3171
9,158490,0.163497,-0.390784,0.423607,-67.2965,48.0777
10,125890,0.138547,-0.319816,0.348536,-66.5773,49.8194
11,100000,0.12023,-0.261477,0.287795,-65.3065,53.1285
12,79433,0.106634,-0.213267,0.23844,-63.4347,54.7779
13,63096,0.0964678,-0.173694,0.198684,-60.9526,56.6004
14,50119,0.0888522,-0.141287,0.166904,-57.8352,58.4339
15,39811,0.0831312,-0.11482,0.141755,-54.0949,60.2597
16,31623,0.0787831,-0.0931826,0.122024,-49.7865,61.9989
17,25119,0.0754341,-0.0754756,0.106709,-45.0158,63.8574
18,19953,0.0725227,-0.0607564,0.0946091,-39.9548,65.6782
19,15849,0.0705749,-0.0489233,0.0858738,-34.7301,67.4016
20,12589,0.0690575,-0.0391422,0.0793791,-29.5449,69.2171
21,10000,0.0680665,-0.0310969,0.0748336,-24.5538,72.3623
22,7943.3,0.0673705,-0.0244467,0.0716689,-19.9442,73.9845
23,6309.6,0.0670457,-0.0189918,0.0696836,-15.8156,75.7157
24,5011.9,0.066586,-0.014419,0.0681293,-12.2186,77.4307
25,3981.1,0.0666211,-0.0107237,0.0674787,-9.14422,79.1658
26,3162.3,0.0668028,-0.00766554,0.0672412,-6.54599,80.8673
27,2511.9,0.0670651,-0.00511139,0.0672596,-4.35839,82.5969
28,1995.3,0.0674702,-0.00297869,0.067536,-2.52786,84.3352
29,1584.9,0.0679138,-0.00117945,0.0679241,-0.994948,86.0156
30,1258.9,0.0684169,0.000357339,0.0684178,0.299251,87.706
31,1000,0.0692809,0.00173972,0.0693028,1.43845,89.4065
32,794.33,0.0700365,0.0029106,0.070097,2.37974,91.2493
33,630.96,0.0705069,0.00394011,0.0706169,3.19851,92.9595
34,501.19,0.0713638,0.00490996,0.0715325,3.93586,94.6752
35,398.11,0.0723082,0.00581979,0.0725421,4.60158,96.3918
36,316.23,0.0733743,0.00669367,0.073679,5.21246,98.1572
37,251.19,0.0744885,0.00753718,0.0748688,5.77786,99.9028
38,199.53,0.0757331,0.00836778,0.076194,6.30506,101.624
39,158.49,0.0770463,0.00918251,0.0775916,6.79655,103.372
40,125.89,0.0785246,0.00999529,0.0791581,7.2541,105.177
41,100,0.0800763,0.0108011,0.0808014,7.68201,106.941
42,79.433,0.0817379,0.011583,0.0825545,8.06563,108.747
43,63.096,0.0835565,0.0123653,0.0844665,8.41797,110.645
44,50.119,0.0854066,0.0131369,0.086411,8.74448,112.714
45,39.811,0.0873792,0.0139003,0.0884779,9.03888,114.656
46,31.623,0.0895057,0.0146691,0.0906998,9.30748,116.694
47,25.119,0.0917031,0.0154216,0.0929908,9.54605,118.763
48,19.953,0.0940262,0.0161379,0.0954011,9.73891,121.052
49,15.849,0.0964892,0.0168634,0.0979517,9.91347,123.398
50,12.589,0.0989443,0.0175687,0.100492,10.0686,125.771
51,10,0.101917,0.018373,0.10356,10.2192,128.46
52,7.9433,0.104452,0.0191474,0.106192,10.3878,131.196
53,6.3096,0.107078,0.020021,0.108934,10.5906,133.991
54,5.0119,0.109661,0.0210037,0.111654,10.8428,136.792
55,3.9811,0.112252,0.02213,0.114413,11.1526,139.688
56,3.1623,0.114892,0.0234987,0.11727,11.5592,142.538
57,2.5119,0.117546,0.0251398,0.120204,12.0721,145.542
58,1.9953,0.120095,0.0272354,0.123145,12.7775,148.579
59,1.5849,0.122676,0.0297439,0.12623,13.6289,151.765
60,1.2589,0.125323,0.0330821,0.129616,14.7873,155.125
61,1,0.127962,0.0374164,0.13332,16.299,158.781
62,0.79433,0.131178,0.0425927,0.13792,17.9883,162.47
63,0.63096,0.134382,0.0491894,0.143102,20.1047,166.356
64,0.50119,0.138401,0.0578657,0.150011,22.6899,170.611
65,0.39811,0.14292,0.0679562,0.158253,25.4303,175.304
66,0.31623,0.149167,0.0802126,0.169366,28.2686,180.513
67,0.25119,0.157067,0.0957177,0.183935,31.3584,186.321
68,0.19953,0.167147,0.11188,0.201134,33.7964,192.927
69,0.15849,0.180348,0.131202,0.223023,36.0358,200.633
70,0.12589,0.196668,0.153855,0.249699,38.0363,209.57
71,0.1,0.219912,0.178552,0.28327,39.0741,220.205

File: NCA_3_Pristine_15C.txt
Index,Frequency (Hz),Z' (Ω),-Z'' (Ω),Z (Ω),-Phase (°),Time (s)
1,1000000,1.22588,-1.19884,1.71464,-44.3611,14.3206
2,794330,0.912431,-1.12461,1.4482,-50.9465,16.1838
3,630960,0.688017,-0.997857,1.21206,-55.414,19.618
4,501190,0.51578,-0.864279,1.00648,-59.1723,23.1792
5,398110,0.390716,-0.733712,0.831259,-61.9638,27.9161
6,316230,0.301482,-0.614159,0.684166,-63.8542,32.4221
7,251190,0.237027,-0.508473,0.561005,-65.0072,35.5725
8,199530,0.193992,-0.419736,0.462397,-65.1948,37.3688
9,158490,0.161805,-0.345239,0.381276,-64.8887,39.2972
10,125890,0.138385,-0.283276,0.315271,-63.9637,41.0404
11,100000,0.121076,-0.231978,0.261673,-62.4386,44.2524
12,79433,0.108245,-0.18931,0.218072,-60.2397,45.983
13,63096,0.0988651,-0.154378,0.183322,-57.3641,47.8512
14,50119,0.0917976,-0.125481,0.155474,-53.812,49.658
15,39811,0.0865945,-0.101897,0.133722,-49.6414,51.4817
16,31623,0.0826861,-0.0826389,0.116902,-44.9836,53.2137
17,25119,0.0797529,-0.0669635,0.104138,-40.0181,54.9711
18,19953,0.0770735,-0.0539157,0.0940597,-34.9742,56.6972
19,15849,0.0753188,-0.04346,0.086958,-29.9855,58.5323
20,12589,0.0739776,-0.034855,0.0817775,-25.2277,60.3929
21,10000,0.0730859,-0.0277405,0.0781734,-20.7848,63.5359
22,7943.3,0.0724355,-0.021877,0.0756671,-16.8054,65.1661
23,6309.6,0.07209,-0.0170522,0.0740793,-13.3082,66.9063
24,5011.9,0.0715665,-0.0130098,0.0727394,-10.3031,68.6468
25,3981.1,0.0715932,-0.00975486,0.0722547,-7.759,70.3632
26,3162.3,0.0717218,-0.0070551,0.072068,-5.61797,72.0805
27,2511.9,0.0719157,-0.0048117,0.0720765,-3.82781,73.844
28,1995.3,0.0722254,-0.00295379,0.0722858,-2.34191,75.5813
29,1584.9,0.072602,-0.00140304,0.0726156,-1.10711,77.2828
30,1258.9,0.0730428,-9.73611e-05,0.0730428,-0.0763714,78.9878
31,1000,0.0738172,0.00105438,0.0738248,0.818334,80.7377
32,794.33,0.0743721,0.00200016,0.074399,1.54054,82.5642
33,630.96,0.0750656,0.00282683,0.0751188,2.15663,84.2902
34,501.19,0.075416,0.00353222,0.0754987,2.68157,86.0904
35,398.11,0.0761465,0.00418539,0.0762614,3.14609,87.7973
36,316.23,0.0769703,0.00477854,0.0771185,3.55253,89.5308
37,251.19,0.0778969,0.00532395,0.0780787,3.90986,91.3017
38,199.53,0.0788222,0.00582022,0.0790368,4.22304,93.088
39,158.49,0.0798701,0.00627731,0.0801164,4.49387,94.8808
40,125.89,0.0808677,0.00668854,0.0811439,4.72815,96.6766
41,100,0.0819792,0.00706954,0.0822834,4.92876,98.4739
42,79.433,0.0831103,0.00740102,0.0834392,5.0888,100.296
43,63.096,0.0842354,0.00770125,0.0845867,5.22377,102.17
44,50.119,0.085421,0.00798151,0.0857931,5.33806,104.249
45,39.811,0.0866322,0.00825644,0.0870248,5.4441,106.26
46,31.623,0.0878785,0.00853165,0.0882917,5.54516,108.31
47,25.119,0.0890473,0.00879851,0.0894809,5.64292,110.309
48,19.953,0.0903086,0.00907041,0.090763,5.73544,112.658
49,15.849,0.0916562,0.00937031,0.0921339,5.83725,115.004
50,12.589,0.0929413,0.0096844,0.0934445,5.9487,117.479
51,10,0.0942239,0.0100344,0.0947567,6.07883,120.217
52,7.9433,0.0954825,0.0104452,0.0960521,6.243,122.942
53,6.3096,0.0966901,0.0109616,0.0973094,6.46794,125.802
54,5.0119,0.0978498,0.0116293,0.0985384,6.77773,128.672
55,3.9811,0.0989466,0.0125182,0.0997353,7.21045,131.518
56,3.1623,0.1001,0.0137251,0.101037,7.80733,134.465
57,2.5119,0.101757,0.0153743,0.102912,8.59178,137.488
58,1.9953,0.102963,0.0174322,0.104428,9.60939,140.597
59,1.5849,0.104385,0.020031,0.10629,10.8627,143.77
60,1.2589,0.105928,0.0232913,0.108459,12.4008,147.035
61,1,0.107897,0.0273333,0.111305,14.2156,150.702
62,0.79433,0.110452,0.0320383,0.115005,16.1756,154.34
63,0.63096,0.11355,0.0377491,0.11966,18.3892,158.252
64,0.50119,0.11769,0.0447542,0.125912,20.8204,162.509
65,0.39811,0.122784,0.0523728,0.133487,23.1004,167.2
66,0.31623,0.129735,0.0610592,0.143385,25.2038,172.359
67,0.25119,0.138512,0.0708962,0.155601,27.1053,178.211
68,0.19953,0.149405,0.0802082,0.169574,28.2291,184.834
69,0.15849,0.162703,0.0898021,0.18584,28.896,192.479
70,0.12589,0.178316,0.0993517,0.204126,29.1251,201.43
71,0.1,0.197317,0.106911,0.224419,28.4498,212.054

File: NCA_3_Pristine_25C.txt
Index,Frequency (Hz),Z' (Ω),-Z'' (Ω),Z (Ω),-Phase (°),Time (s)
1,1000000,1.22674,-1.18251,1.70388,-43.9483,19.2295
2,794330,0.916791,-1.11199,1.44119,-50.4957,21.1225
3,630960,0.694613,-0.990328,1.20964,-54.9543,24.5158
4,501190,0.521824,-0.859513,1.00552,-58.7374,27.8414
5,398110,0.396245,-0.731533,0.831956,-61.5572,32.4593
6,316230,0.306072,-0.613188,0.685331,-63.474,36.9245
7,251190,0.240975,-0.508589,0.562789,-64.6479,40.0363
8,199530,0.197259,-0.420478,0.464449,-64.8674,41.7615
9,158490,0.164433,-0.346262,0.383322,-64.5978,43.6065
10,125890,0.140497,-0.284355,0.31717,-63.7065,45.3085
11,100000,0.12276,-0.233028,0.263386,-62.2196,48.5543
12,79433,0.109725,-0.190581,0.219911,-60.0692,50.1983
13,63096,0.0999842,-0.155444,0.184824,-57.2502,52.0056
14,50119,0.0927956,-0.126675,0.157028,-53.7755,53.824
15,39811,0.0873333,-0.102984,0.135029,-49.7011,55.6723
16,31623,0.0832509,-0.0836831,0.118041,-45.1484,57.4945
17,25119,0.0801151,-0.0678977,0.105017,-40.2813,59.3071
18,19953,0.0773271,-0.0547799,0.0947645,-35.3145,61.0449
19,15849,0.0754454,-0.0442249,0.087452,-30.3782,62.8641
20,12589,0.0740103,-0.0355303,0.0820971,-25.6443,64.596
21,10000,0.0731092,-0.028374,0.0784222,-21.2114,67.8157
22,7943.3,0.072406,-0.0224536,0.0758076,-17.229,69.4556
23,6309.6,0.0720137,-0.0175976,0.0741327,-13.732,71.2188
24,5011.9,0.0714426,-0.013544,0.0727151,-10.7346,72.9511
25,3981.1,0.0714488,-0.010304,0.072188,-8.20634,74.6921
26,3162.3,0.0715219,-0.00763091,0.0719278,-6.09005,76.3987
27,2511.9,0.0716975,-0.00543087,0.0719029,-4.33171,78.1919
28,1995.3,0.0719186,-0.00362347,0.0720098,-2.88429,79.9294
29,1584.9,0.0722562,-0.00214157,0.0722879,-1.69767,81.5681
30,1258.9,0.0726203,-0.000918736,0.0726261,-0.724824,83.2608
31,1000,0.073294,0.000134662,0.0732941,0.105269,84.9817
32,794.33,0.0737657,0.000965859,0.073772,0.750166,86.7982
33,630.96,0.0743152,0.0016614,0.0743338,1.2807,88.5233
34,501.19,0.0745619,0.00222652,0.0745951,1.71043,90.2576
35,398.11,0.0751355,0.00271634,0.0751846,2.07048,91.9536
36,316.23,0.0757228,0.0031277,0.0757873,2.36523,93.7266
37,251.19,0.0764238,0.00347943,0.076503,2.60677,95.4694
38,199.53,0.0770646,0.00377285,0.0771569,2.80279,97.2063
39,158.49,0.0777493,0.00402865,0.0778536,2.96618,98.9485
40,125.89,0.0784519,0.00425382,0.0785672,3.10365,100.771
41,100,0.0791819,0.00446628,0.0793077,3.22837,102.534
42,79.433,0.0798589,0.00464183,0.0799937,3.32659,104.359
43,63.096,0.0805814,0.00481407,0.0807251,3.41888,106.227
44,50.119,0.0813139,0.00497531,0.081466,3.50136,108.296
45,39.811,0.0820393,0.00513226,0.0821997,3.57967,110.243
46,31.623,0.0827822,0.00528201,0.0829505,3.65087,112.304
47,25.119,0.0835435,0.00542894,0.0837197,3.71805,114.288
48,19.953,0.0842645,0.00556821,0.0844483,3.78062,116.563
49,15.849,0.0850369,0.00574122,0.0852305,3.86243,118.906
50,12.589,0.0856776,0.00595656,0.0858844,3.97697,121.376
51,10,0.0863243,0.00626044,0.086551,4.14796,124.065
52,7.9433,0.0869571,0.00669019,0.0872141,4.39948,126.815
53,6.3096,0.0875218,0.00727588,0.0878237,4.7522,129.617
54,5.0119,0.0881364,0.00807246,0.0885053,5.23315,132.423
55,3.9811,0.088741,0.00911838,0.0892083,5.86671,135.235
56,3.1623,0.0894734,0.0104791,0.090085,6.68005,138.178
57,2.5119,0.0902603,0.0121899,0.0910797,7.6914,141.185
58,1.9953,0.091246,0.014297,0.0923593,8.90504,144.254
59,1.5849,0.0926046,0.0168423,0.0941238,10.3079,147.363
60,1.2589,0.094235,0.0199227,0.0963179,11.9374,150.687
61,1,0.0964003,0.023466,0.0992153,13.681,154.399
62,0.79433,0.0992228,0.0275964,0.102989,15.5426,158.082
63,0.63096,0.103349,0.0323483,0.108293,17.3802,161.95
64,0.50119,0.107985,0.0373378,0.114258,19.0737,166.227
65,0.39811,0.114047,0.0425672,0.121732,20.4677,170.947
66,0.31623,0.121365,0.0476102,0.13037,21.4195,176.115
67,0.25119,0.129936,0.051866,0.139905,21.7602,181.901
68,0.19953,0.13976,0.0556918,0.150448,21.7264,188.554
69,0.15849,0.150332,0.0579868,0.161128,21.0929,196.238
70,0.12589,0.161082,0.0589564,0.171533,20.1027,205.164
71,0.1,0.17143,0.0589149,0.181271,18.9662,215.801