Folder: ECSHackWeek_Dallas/tutorials/data/eis (part 10)

File: NMC_3_Pristine_15C.txt
Index,Frequency (Hz),Z' (Ω),-Z'' (Ω),Z (Ω),-Phase (°),Time (s)
1,1000000,1.12625,-1.28866,1.71145,-48.8475,54.0868
2,794330,0.803432,-1.17584,1.42411,-55.6558,55.9246
3,630960,0.583299,-1.01939,1.17447,-60.2216,59.3422
4,501190,0.420676,-0.865214,0.962062,-64.0705,62.6595
5,398110,0.307198,-0.722272,0.784887,-66.9589,67.3008
6,316230,0.22873,-0.59529,0.63772,-68.9816,71.7259
7,251190,0.174223,-0.485888,0.516179,-70.2738,74.8278
8,199530,0.139332,-0.396041,0.419836,-70.6176,76.579
9,158490,0.114272,-0.321815,0.341501,-70.4507,78.4038
10,125890,0.0967395,-0.261177,0.278518,-69.6755,80.1266
11,100000,0.0841861,-0.212053,0.228153,-68.3467,83.4548
12,79433,0.0750196,-0.172093,0.187733,-66.4464,85.1716
13,63096,0.0681514,-0.139636,0.155379,-63.9846,87.0003
14,50119,0.0629036,-0.113182,0.129487,-60.9358,88.8222
15,39811,0.0589026,-0.0916595,0.108954,-57.2742,90.6558
16,31623,0.0555928,-0.073772,0.0923735,-52.9992,92.3729
17,25119,0.053333,-0.0594537,0.0798696,-48.1063,94.1051
18,19953,0.0516297,-0.0477076,0.0702968,-42.739,95.9544
19,15849,0.0504457,-0.0381688,0.0632584,-37.1123,97.7921
20,12589,0.0496258,-0.0303934,0.0581935,-31.4855,99.5257
21,10000,0.0489872,-0.0240349,0.0545658,-26.1342,102.769
22,7943.3,0.0486514,-0.018852,0.0521762,-21.1809,104.406
23,6309.6,0.0485445,-0.014658,0.0507092,-16.8017,106.128
24,5011.9,0.0482799,-0.0111769,0.0495568,-13.0345,107.85
25,3981.1,0.0483877,-0.00840236,0.0491118,-9.85098,109.58
26,3162.3,0.0485854,-0.00613618,0.0489713,-7.19817,111.284
27,2511.9,0.0487815,-0.00426965,0.048968,-5.00212,113.035
28,1995.3,0.0490588,-0.00272086,0.0491341,-3.17445,114.766
29,1584.9,0.0493702,-0.00143551,0.049391,-1.66549,116.363
30,1258.9,0.0497583,-0.000367475,0.0497597,-0.423133,118.059
31,1000,0.0503168,0.000588288,0.0503202,0.669854,119.784
32,794.33,0.0508237,0.00132816,0.050841,1.49695,121.625
33,630.96,0.051127,0.00193543,0.0511636,2.16791,123.329
34,501.19,0.0516915,0.00245825,0.0517499,2.72272,125.066
35,398.11,0.0522979,0.00289882,0.0523782,3.1726,126.766
36,316.23,0.0529191,0.00326302,0.0530196,3.52843,128.494
37,251.19,0.0535989,0.0035658,0.0537174,3.80614,130.241
38,199.53,0.0542736,0.00380571,0.0544069,4.01106,131.968
39,158.49,0.0549917,0.00399778,0.0551369,4.15797,133.725
40,125.89,0.0556864,0.00414111,0.0558401,4.25297,135.518
41,100,0.0564002,0.00425141,0.0565602,4.31077,137.29
42,79.433,0.0570961,0.00430919,0.0572585,4.31607,139.107
43,63.096,0.0577729,0.00434319,0.057936,4.29923,141.03
44,50.119,0.0584025,0.00435544,0.0585646,4.26502,143.11
45,39.811,0.0590171,0.00437319,0.0591789,4.2379,145.055
46,31.623,0.0595596,0.00440562,0.0597223,4.23046,147.104
47,25.119,0.0601108,0.00448485,0.0602779,4.26691,149.189
48,19.953,0.0606106,0.00461222,0.0607859,4.35159,151.463
49,15.849,0.0611104,0.00484282,0.061302,4.53106,153.848
50,12.589,0.0616106,0.00518353,0.0618283,4.80918,156.325
51,10,0.0621373,0.00565207,0.0623938,5.19738,159.024
52,7.9433,0.0627285,0.00626623,0.0630407,5.70461,161.74
53,6.3096,0.0634231,0.00702704,0.0638112,6.32237,164.557
54,5.0119,0.0642623,0.00793947,0.0647509,7.04307,167.38
55,3.9811,0.0652859,0.00898591,0.0659014,7.83691,170.195
56,3.1623,0.0665465,0.0101361,0.067314,8.66048,173.142
57,2.5119,0.0681267,0.0113478,0.0690653,9.45689,176.166
58,1.9953,0.0700218,0.0125412,0.071136,10.1542,179.278
59,1.5849,0.072224,0.0136245,0.0734979,10.6829,182.408
60,1.2589,0.0746739,0.0145123,0.076071,10.9979,185.752
61,1,0.0773641,0.0151344,0.0788305,11.0688,189.401
62,0.79433,0.0801051,0.015459,0.0815831,10.9229,193.107
63,0.63096,0.0827515,0.0154905,0.0841888,10.6027,197.002
64,0.50119,0.0853836,0.0153278,0.0867485,10.1771,201.245
65,0.39811,0.0877573,0.0150501,0.0890385,9.73141,205.874
66,0.31623,0.0899651,0.0147046,0.0911589,9.28276,211.064
67,0.25119,0.0920516,0.0143379,0.0931615,8.85321,216.902
68,0.19953,0.0939109,0.0142139,0.0949804,8.6067,223.516
69,0.15849,0.0955932,0.0141166,0.0966299,8.40037,231.158
70,0.12589,0.0973673,0.0142153,0.0983995,8.30629,240.088
71,0.1,0.0987279,0.0144792,0.0997839,8.34337,250.668

File: NMC_3_Pristine_25C.txt
Index,Frequency (Hz),Z' (Ω),-Z'' (Ω),Z (Ω),-Phase (°),Time (s)
1,1000000,1.44837,-1.66317,2.20543,-48.9489,18.9842
2,794330,1.03736,-1.51673,1.83755,-55.6299,22.2865
3,630960,0.75348,-1.31549,1.516,-60.1971,25.6366
4,501190,0.54474,-1.11619,1.24202,-63.9859,28.9617
5,398110,0.39876,-0.930544,1.01238,-66.8037,32.1416
6,316230,0.298348,-0.766779,0.822777,-68.7393,36.5885
7,251190,0.228508,-0.625005,0.665468,-69.9171,38.2143
8,199530,0.184068,-0.509205,0.541453,-70.126,40.0208
9,158490,0.152027,-0.413142,0.440225,-69.7975,41.8328
10,125890,0.129811,-0.334661,0.358955,-68.7993,43.5694
11,100000,0.114119,-0.270997,0.294045,-67.1637,46.7951
12,79433,0.1029,-0.219279,0.242222,-64.861,48.5161
13,63096,0.0946608,-0.177262,0.200954,-61.8971,50.3202
14,50119,0.0885402,-0.143141,0.168311,-58.261,52.1767
15,39811,0.0840436,-0.115491,0.142834,-53.9565,53.9069
16,31623,0.0806878,-0.0930261,0.123144,-49.0627,55.6654
17,25119,0.0782437,-0.0748451,0.108277,-43.7282,57.4834
18,19953,0.076013,-0.0597997,0.096716,-38.1923,59.3049
19,15849,0.0747093,-0.0478898,0.0887407,-32.6605,61.1104
20,12589,0.0737525,-0.0382254,0.0830699,-27.3974,62.844
21,10000,0.0730818,-0.0303859,0.0791471,-22.5765,66.0579
22,7943.3,0.0726974,-0.0240444,0.0765706,-18.3015,67.7026
23,6309.6,0.0725087,-0.0189235,0.0749374,-14.6269,69.4215
24,5011.9,0.0720703,-0.014704,0.0735549,-11.5314,71.1676
25,3981.1,0.072078,-0.0113576,0.0729674,-8.95471,72.8743
26,3162.3,0.0721752,-0.00863441,0.0726899,-6.82194,74.6325
27,2511.9,0.0722616,-0.00641172,0.0725455,-5.07053,76.4346
28,1995.3,0.0724341,-0.00461193,0.0725808,-3.64315,78.1372
29,1584.9,0.0726578,-0.0031506,0.0727261,-2.48292,79.8181
30,1258.9,0.0728915,-0.0019673,0.072918,-1.546,81.5454
31,1000,0.0734121,-0.000966157,0.0734185,-0.754011,83.2573
32,794.33,0.0737408,-0.000208241,0.0737411,-0.1618,85.0925
33,630.96,0.0741177,0.000404952,0.0741188,0.31304,86.8179
34,501.19,0.0741875,0.000880488,0.0741927,0.679978,88.5546
35,398.11,0.0745476,0.00126447,0.0745583,0.971755,90.2563
36,316.23,0.0749557,0.00156517,0.0749721,1.19623,91.9869
37,251.19,0.0754004,0.0017995,0.0754219,1.36716,93.7722
38,199.53,0.0757858,0.00197742,0.0758116,1.49464,95.4897
39,158.49,0.0762191,0.00211831,0.0762485,1.59198,97.239
40,125.89,0.0765947,0.00222963,0.0766272,1.66738,99.0191
41,100,0.0769662,0.00232606,0.0770013,1.73106,100.803
42,79.433,0.0772957,0.00239398,0.0773328,1.77398,102.616
43,63.096,0.0776486,0.00245685,0.0776874,1.81227,104.475
44,50.119,0.0780148,0.00252694,0.0780557,1.85519,106.581
45,39.811,0.0782858,0.00261164,0.0783294,1.91069,108.519
46,31.623,0.0785747,0.00272628,0.078622,1.98718,110.552
47,25.119,0.0789143,0.0028885,0.0789672,2.09626,112.653
48,19.953,0.0792051,0.00309444,0.0792656,2.23733,114.947
49,15.849,0.0795646,0.00337409,0.0796361,2.42828,117.289
50,12.589,0.0799653,0.00372643,0.080052,2.66809,119.707
51,10,0.0804204,0.00415328,0.0805275,2.95639,122.403
52,7.9433,0.0809706,0.00464345,0.0811036,3.28217,125.113
53,6.3096,0.081639,0.00517909,0.0818031,3.62992,127.918
54,5.0119,0.0824472,0.00572481,0.0826457,3.97202,130.698
55,3.9811,0.0834164,0.00624158,0.0836496,4.27915,133.53
56,3.1623,0.0845447,0.00669507,0.0848094,4.52779,136.446
57,2.5119,0.0857615,0.00702845,0.086049,4.68511,139.471
58,1.9953,0.0870285,0.00722061,0.0873275,4.74287,142.562
59,1.5849,0.0883512,0.00726709,0.0886496,4.70213,145.723
60,1.2589,0.0895723,0.00718505,0.08986,4.58616,149.002
61,1,0.0906817,0.00699854,0.0909514,4.41317,152.653
62,0.79433,0.0916972,0.00678351,0.0919477,4.23088,156.285
63,0.63096,0.0926004,0.00657381,0.0928335,4.06068,160.169
64,0.50119,0.0934336,0.00645791,0.0936565,3.95386,164.44
65,0.39811,0.0942115,0.00634718,0.094425,3.85429,169.057
66,0.31623,0.0948909,0.00635709,0.0951037,3.83273,174.237
67,0.25119,0.0956094,0.00654954,0.0958334,3.91882,180.052
68,0.19953,0.0963008,0.00670486,0.096534,3.98274,186.691
69,0.15849,0.0969008,0.00708511,0.0971595,4.18187,194.368
70,0.12589,0.0976772,0.00762138,0.097974,4.46153,203.379
71,0.1,0.0985761,0.0082015,0.0989167,4.75604,213.945

File: NMC_3_Pristine_35C.txt
Index,Frequency (Hz),Z' (Ω),-Z'' (Ω),Z (Ω),-Phase (°),Time (s)
1,1000000,1.28618,-1.4711,1.95407,-48.837,18.9712
2,794330,0.918135,-1.34063,1.62489,-55.5947,20.8043
3,630960,0.667761,-1.16562,1.34334,-60.1925,24.1938
4,501190,0.481426,-0.990078,1.10092,-64.0686,27.4991
5,398110,0.351329,-0.827001,0.898534,-66.9831,32.1381
6,316230,0.261288,-0.681247,0.729637,-69.016,35.2521
7,251190,0.199112,-0.557079,0.591594,-70.332,38.4143
8,199530,0.159008,-0.454591,0.481598,-70.721,40.1557
9,158490,0.129985,-0.36979,0.39197,-70.6328,41.9565
10,125890,0.109592,-0.300721,0.320068,-69.9766,43.6995
11,100000,0.0947697,-0.244711,0.262421,-68.83,46.9966
12,79433,0.0837298,-0.198947,0.215848,-67.1755,48.6218
13,63096,0.075371,-0.161777,0.178473,-65.0194,50.4697
14,50119,0.0689173,-0.131363,0.148343,-62.317,52.2974
15,39811,0.0640341,-0.106546,0.124308,-58.9941,54.1203
16,31623,0.0603147,-0.0861365,0.105154,-54.9994,55.9492
17,25119,0.0572697,-0.0691674,0.0897995,-50.3757,57.665
18,19953,0.0552778,-0.0556212,0.0784178,-45.1774,59.3822
19,15849,0.053854,-0.0446028,0.0699262,-39.6321,61.1082
20,12589,0.0528599,-0.0356679,0.0637681,-34.01,62.8632
21,10000,0.0520891,-0.0283888,0.0593228,-28.5906,66.0762
22,7943.3,0.0516176,-0.0224875,0.0563033,-23.5406,67.695
23,6309.6,0.0514163,-0.0177615,0.0543976,-19.0572,69.4554
24,5011.9,0.0510302,-0.0138635,0.0528798,-15.1988,71.2626
25,3981.1,0.0510361,-0.0108023,0.0521667,-11.9508,72.9897
26,3162.3,0.0510991,-0.00833716,0.0517747,-9.26655,74.6921
27,2511.9,0.0511694,-0.00634279,0.051561,-7.06616,76.4478
28,1995.3,0.0512765,-0.00472922,0.0514941,-5.26947,78.153
29,1584.9,0.0514322,-0.00343461,0.0515468,-3.82051,79.85
30,1258.9,0.0515788,-0.00239536,0.0516343,-2.65895,81.5671
31,1000,0.0519183,-0.00151014,0.0519402,-1.66609,83.2837
32,794.33,0.0521686,-0.000866228,0.0521758,-0.951274,85.1052
33,630.96,0.0521598,-0.000359487,0.052161,-0.394878,86.8168
34,501.19,0.0523814,4.23629e-05,0.0523815,0.0463373,88.6072
35,398.11,0.0526077,0.000361379,0.052609,0.393576,90.3046
36,316.23,0.0528589,0.000613006,0.0528625,0.664431,92.0169
37,251.19,0.0530923,0.000814072,0.0530985,0.878456,93.7685
38,199.53,0.0533388,0.000979115,0.0533477,1.05163,95.5054
39,158.49,0.0535415,0.00111759,0.0535532,1.19578,97.2698
40,125.89,0.0537852,0.00124283,0.0537996,1.32371,99.053
41,100,0.0540251,0.00136062,0.0540422,1.44269,100.881
42,79.433,0.0542284,0.00145889,0.054248,1.54104,102.698
43,63.096,0.0544391,0.00155543,0.0544613,1.6366,104.545
44,50.119,0.0546782,0.00165822,0.0547034,1.73707,106.605
45,39.811,0.0548963,0.00177148,0.0549249,1.84827,108.563
46,31.623,0.0551152,0.00190235,0.055148,1.97683,110.575
47,25.119,0.0553553,0.00205673,0.0553935,2.12785,112.64
48,19.953,0.0556323,0.00221904,0.0556766,2.28418,114.937
49,15.849,0.0560008,0.00241054,0.0560526,2.46476,117.275
50,12.589,0.0563777,0.00261014,0.0564381,2.65075,119.727
51,10,0.0568016,0.00280064,0.0568706,2.82271,122.42
52,7.9433,0.057262,0.00296851,0.0573388,2.96761,125.107
53,6.3096,0.0577873,0.00309924,0.0578704,3.06993,127.92
54,5.0119,0.0583456,0.00317328,0.0584319,3.11311,130.705
55,3.9811,0.0588995,0.00319345,0.058986,3.10346,133.565
56,3.1623,0.0594056,0.00316078,0.0594896,3.04565,136.498
57,2.5119,0.0598946,0.00309615,0.0599745,2.95918,139.535
58,1.9953,0.0603614,0.00302248,0.060437,2.86658,142.583
59,1.5849,0.0607729,0.00294595,0.0608443,2.77522,145.795
60,1.2589,0.0611184,0.00289288,0.0611868,2.70993,149.098
61,1,0.0614676,0.00287897,0.061535,2.68161,152.807
62,0.79433,0.0617654,0.00290299,0.0618336,2.69094,156.44
63,0.63096,0.0620786,0.0029831,0.0621502,2.75116,160.32
64,0.50119,0.0623368,0.00313056,0.0624154,2.87499,164.577
65,0.39811,0.0626953,0.00335494,0.062785,3.06309,169.198
66,0.31623,0.0630245,0.00363035,0.063129,3.29672,174.358
67,0.25119,0.063447,0.00397299,0.0635712,3.58313,180.164
68,0.19953,0.0638217,0.00437719,0.0639716,3.92347,186.833
69,0.15849,0.0642788,0.00485818,0.0644621,4.32219,194.521
70,0.12589,0.0648294,0.0054207,0.0650556,4.77966,203.523
71,0.1,0.0653905,0.00594981,0.0656606,5.19896,214.093

File: NMC_3_Pristine_45C.txt
Index,Frequency (Hz),Z' (Ω),-Z'' (Ω),Z (Ω),-Phase (°),Time (s)
1,1000000,1.36824,-1.56443,2.07835,-48.8272,19.2783
2,794330,0.976964,-1.4255,1.72815,-55.5752,22.6722
3,630960,0.7094,-1.23954,1.42819,-60.2172,25.9787
4,501190,0.511151,-1.05265,1.17019,-64.0995,29.2866
5,398110,0.372731,-0.877637,0.953507,-66.9891,32.4896
6,316230,0.277469,-0.722843,0.774268,-69.0003,36.927
7,251190,0.211542,-0.58905,0.625884,-70.2455,38.5513
8,199530,0.169465,-0.479607,0.508666,-70.5396,40.3683
9,158490,0.139427,-0.388895,0.413133,-70.2762,42.1864
10,125890,0.118578,-0.314955,0.336537,-69.369,43.8917
11,100000,0.103854,-0.254743,0.275099,-67.8201,47.2215
12,79433,0.0932928,-0.205922,0.226069,-65.6271,48.8461
13,63096,0.0856737,-0.16632,0.187089,-62.7464,50.6433
14,50119,0.0800367,-0.134202,0.156257,-59.1886,52.4559
15,39811,0.0758902,-0.108126,0.132101,-54.9363,54.1955
16,31623,0.0729163,-0.0869751,0.113496,-50.0249,55.9229
17,25119,0.0706932,-0.0698762,0.0993992,-44.667,57.64
18,19953,0.0688215,-0.0558025,0.088602,-39.0362,59.4862
19,15849,0.0676264,-0.0446501,0.0810368,-33.4347,61.2286
20,12589,0.066817,-0.0356519,0.0757335,-28.0833,63.0614
21,10000,0.0662876,-0.0284034,0.0721166,-23.1945,66.1763
22,7943.3,0.0659793,-0.0225443,0.0697245,-18.8647,67.8173
23,6309.6,0.0657819,-0.0178277,0.0681549,-15.1636,69.5494
24,5011.9,0.0653724,-0.0139683,0.0668481,-12.0612,71.2949
25,3981.1,0.0653268,-0.0109383,0.0662362,-9.50537,73.0061
26,3162.3,0.0654481,-0.00851677,0.0659999,-7.41424,74.7115
27,2511.9,0.065477,-0.00655035,0.0658039,-5.71288,76.4379
28,1995.3,0.0655282,-0.00497681,0.0657169,-4.34323,78.1622
29,1584.9,0.0655784,-0.00371803,0.0656838,-3.24497,79.8242
30,1258.9,0.0657166,-0.00271156,0.0657725,-2.36276,81.5284
31,1000,0.0659628,-0.00188625,0.0659898,-1.63797,83.2498
32,794.33,0.0661319,-0.00125425,0.0661438,-1.08653,85.0826
33,630.96,0.0663225,-0.000752672,0.0663268,-0.650203,86.7948
34,501.19,0.066154,-0.000361125,0.066155,-0.312766,88.5297
35,398.11,0.0663718,-4.62434e-05,0.0663719,-0.0399198,90.2244
36,316.23,0.0665195,0.0002016,0.0665198,0.173646,91.9783
37,251.19,0.0666584,0.000404823,0.0666597,0.347958,93.7341
38,199.53,0.0668611,0.000570768,0.0668635,0.489101,95.4502
39,158.49,0.0670383,0.000714499,0.0670421,0.61064,97.1872
40,125.89,0.0671793,0.000843487,0.0671846,0.719354,98.9892
41,100,0.0673719,0.000966662,0.0673788,0.822032,100.762
42,79.433,0.0675316,0.00106373,0.06754,0.902425,102.583
43,63.096,0.0677074,0.00115627,0.0677173,0.978372,104.485
44,50.119,0.0679084,0.00125041,0.0679199,1.05488,106.576
45,39.811,0.0680161,0.00134146,0.0680293,1.12988,108.507
46,31.623,0.0682995,0.00144205,0.0683147,1.20954,110.548
47,25.119,0.0684428,0.00153335,0.06846,1.28341,112.61
48,19.953,0.068716,0.00161054,0.0687349,1.34263,114.9
49,15.849,0.0690736,0.00168576,0.0690942,1.39804,117.288
50,12.589,0.0693117,0.00173271,0.0693333,1.43202,119.746
51,10,0.0695763,0.00176285,0.0695987,1.45138,122.427
52,7.9433,0.0698896,0.00175166,0.0699116,1.43572,125.152
53,6.3096,0.0701794,0.00172769,0.0702007,1.41024,127.97
54,5.0119,0.070414,0.00168127,0.0704341,1.36779,130.851
55,3.9811,0.070666,0.0016356,0.0706849,1.3259,133.657
56,3.1623,0.0708681,0.00161271,0.0708864,1.30363,136.61
57,2.5119,0.0710499,0.00157064,0.0710673,1.26638,139.627
58,1.9953,0.0711906,0.00156861,0.0712078,1.26225,142.706
59,1.5849,0.0713422,0.0015894,0.0713599,1.27626,145.859
60,1.2589,0.0715087,0.00164886,0.0715277,1.3209,149.194
61,1,0.0716513,0.00172195,0.0716719,1.37669,152.834
62,0.79433,0.0718467,0.00185675,0.0718707,1.48038,156.554
63,0.63096,0.0719999,0.00202597,0.0720284,1.6118,160.438
64,0.50119,0.0722069,0.00222984,0.0722413,1.7688,164.666
65,0.39811,0.0724125,0.00247774,0.0724549,1.95973,169.285
66,0.31623,0.072702,0.00278,0.0727552,2.18983,174.493
67,0.25119,0.0729751,0.00310395,0.073041,2.43557,180.305
68,0.19953,0.073348,0.00349559,0.0734313,2.72852,187.035
69,0.15849,0.0737001,0.00391744,0.0738041,3.04263,194.747
70,0.12589,0.0740898,0.00436812,0.0742184,3.37409,203.682
71,0.1,0.0744335,0.00497785,0.0745997,3.82605,214.258