Folder: ECSHackWeek_Dallas/tutorials/data/eis (part 5)

File: LFP_2_Pristine_35C.txt
Index,Frequency (Hz),Z' (Ω),-Z'' (Ω),Z (Ω),-Phase (°),Time (s)
1,1000000,1.19364,-1.38032,1.82485,-49.1483,18.9603
2,794330,0.858299,-1.25079,1.51696,-55.542,20.7965
3,630960,0.631747,-1.08046,1.2516,-59.6852,22.6182
4,501190,0.465257,-0.916,1.02739,-63.073,28.86
5,398110,0.348822,-0.764219,0.840064,-65.466,33.4377
6,316230,0.267814,-0.630888,0.685379,-66.9986,36.5389
7,251190,0.210823,-0.517038,0.558368,-67.8167,39.6486
8,199530,0.173278,-0.422759,0.456892,-67.7126,41.3624
9,158490,0.145745,-0.344908,0.374437,-67.0929,43.175
10,125890,0.12595,-0.280544,0.30752,-65.8224,44.8748
11,100000,0.111705,-0.227913,0.253816,-63.8895,48.1665
12,79433,0.101496,-0.184847,0.210879,-61.2296,49.9015
13,63096,0.0939835,-0.149735,0.176787,-57.8849,51.7022
14,50119,0.0884206,-0.121187,0.150015,-53.8846,53.5204
15,39811,0.0843045,-0.0980616,0.129319,-49.3141,55.3775
16,31623,0.0811347,-0.0792401,0.11341,-44.3231,57.1234
17,25119,0.0787622,-0.0639554,0.101458,-39.0768,58.8399
18,19953,0.076622,-0.0513247,0.0922234,-33.8158,60.6682
19,15849,0.075319,-0.0411887,0.0858456,-28.6723,62.4952
20,12589,0.0743485,-0.0329632,0.0813282,-23.9106,64.2343
21,10000,0.0736564,-0.0262967,0.0782099,-19.6475,67.45
22,7943.3,0.0732616,-0.0208698,0.0761762,-15.9005,69.0869
23,6309.6,0.0730777,-0.0164876,0.0749145,-12.7141,70.8077
24,5011.9,0.0726245,-0.0128728,0.0737565,-10.0514,72.6342
25,3981.1,0.0726663,-0.0100269,0.0733548,-7.85637,74.3453
26,3162.3,0.0726555,-0.00770393,0.0730628,-6.05267,76.0803
27,2511.9,0.0726702,-0.00581374,0.0729024,-4.57401,77.8779
28,1995.3,0.0727626,-0.00428422,0.0728886,-3.36965,79.5951
29,1584.9,0.0728748,-0.00304744,0.0729385,-2.39457,81.2869
30,1258.9,0.0729962,-0.00204697,0.0730249,-1.60627,83.0051
31,1000,0.0733381,-0.00117991,0.0733476,-0.921733,84.7274
32,794.33,0.0734681,-0.000527267,0.07347,-0.411194,86.5452
33,630.96,0.0737027,1.26067e-05,0.0737027,0.00980034,88.2822
34,501.19,0.0736166,0.000454924,0.073618,0.354063,90.0184
35,398.11,0.073925,0.000841786,0.0739298,0.6524,91.7183
36,316.23,0.0741756,0.00117691,0.074185,0.90901,93.4301
37,251.19,0.0744464,0.00146905,0.0744609,1.13047,95.2324
38,199.53,0.0748128,0.00172439,0.0748327,1.3204,96.9539
39,158.49,0.0751834,0.00194967,0.0752087,1.48547,98.6964
40,125.89,0.0755933,0.00213841,0.0756236,1.62037,100.484
41,100,0.0760233,0.00229737,0.076058,1.73091,102.272
42,79.433,0.0764626,0.0023956,0.0765001,1.79451,104.089
43,63.096,0.0769162,0.0024508,0.0769552,1.82501,105.967
44,50.119,0.0773534,0.00245938,0.0773925,1.82105,108.073
45,39.811,0.0778082,0.00242545,0.077846,1.78545,110.006
46,31.623,0.0781926,0.00235477,0.078228,1.72494,112.019
47,25.119,0.0785691,0.00225313,0.0786014,1.64262,114.146
48,19.953,0.0789203,0.00211744,0.0789487,1.53688,116.422
49,15.849,0.0793022,0.00197434,0.0793268,1.42616,118.766
50,12.589,0.0795421,0.00182593,0.0795631,1.31502,121.262
51,10,0.0797559,0.00168633,0.0797737,1.21126,123.942
52,7.9433,0.0799792,0.00155696,0.0799944,1.11524,126.652
53,6.3096,0.0801451,0.00144946,0.0801582,1.03611,129.458
54,5.0119,0.0802818,0.00135452,0.0802932,0.966606,132.246
55,3.9811,0.0804155,0.00128446,0.0804258,0.915094,135.061
56,3.1623,0.0805439,0.00123638,0.0805534,0.879446,137.997
57,2.5119,0.0806472,0.00122015,0.0806564,0.866788,141.015
58,1.9953,0.0807808,0.0012237,0.0807901,0.867873,144.083
59,1.5849,0.0808122,0.00125641,0.080822,0.890718,147.29
60,1.2589,0.0809353,0.00132347,0.0809461,0.936826,150.594
61,1,0.0810295,0.00141274,0.0810418,0.998844,154.247
62,0.79433,0.0811424,0.00156005,0.0811574,1.10144,157.939
63,0.63096,0.0812389,0.00174075,0.0812575,1.22752,161.811
64,0.50119,0.081296,0.00197456,0.08132,1.39136,166.057
65,0.39811,0.0814688,0.00224857,0.0814998,1.58098,170.757
66,0.31623,0.0816457,0.00261634,0.0816876,1.83542,175.923
67,0.25119,0.0817712,0.00305979,0.0818285,2.14295,181.719
68,0.19953,0.0820735,0.00359946,0.0821524,2.51119,188.372
69,0.15849,0.0822384,0.00425655,0.0823485,2.96291,196.059
70,0.12589,0.0824914,0.00503438,0.0826449,3.49238,205.01
71,0.1,0.0826995,0.00611854,0.0829256,4.23133,215.59

File: LFP_2_Pristine_45C.txt
Index,Frequency (Hz),Z' (Ω),-Z'' (Ω),Z (Ω),-Phase (°),Time (s)
1,1000000,1.23627,-1.47026,1.92095,-49.9411,14.4378
2,794330,0.879903,-1.32646,1.59177,-56.4418,16.2819
3,630960,0.638574,-1.14463,1.31071,-60.8435,18.127
4,501190,0.462384,-0.967355,1.07218,-64.4528,21.5098
5,398110,0.3392,-0.803515,0.872178,-67.1132,26.1116
6,316230,0.255676,-0.659663,0.707478,-68.8144,29.215
7,251190,0.198131,-0.536535,0.571949,-69.7318,32.3463
8,199530,0.161486,-0.435499,0.464475,-69.6549,34.0689
9,158490,0.135407,-0.352137,0.377274,-68.9668,35.8921
10,125890,0.117827,-0.284282,0.307733,-67.4873,37.6057
11,100000,0.105137,-0.229598,0.252525,-65.396,40.8274
12,79433,0.0962482,-0.185177,0.208696,-62.5362,42.5913
13,63096,0.0901268,-0.149346,0.174434,-58.89,44.4041
14,50119,0.0855211,-0.120547,0.147802,-54.6464,46.216
15,39811,0.082023,-0.0972911,0.127253,-49.8668,48.0294
16,31623,0.079211,-0.0784814,0.111507,-44.7349,49.7825
17,25119,0.0771762,-0.0632792,0.0998019,-39.3494,51.5153
18,19953,0.0751967,-0.0507251,0.090706,-34.0023,53.3361
19,15849,0.0739293,-0.0407346,0.0844089,-28.8545,55.2043
20,12589,0.0727484,-0.0326193,0.0797267,-24.1507,56.9206
21,10000,0.0718743,-0.0260341,0.076444,-19.9113,60.1301
22,7943.3,0.0712388,-0.0206885,0.0741821,-16.1938,61.8043
23,6309.6,0.070645,-0.0163871,0.0725207,-13.0596,63.5464
24,5011.9,0.0700627,-0.0128599,0.0712331,-10.4008,65.2781
25,3981.1,0.0700202,-0.0100702,0.0707407,-8.18409,66.9776
26,3162.3,0.0698219,-0.00781425,0.0702579,-6.38579,68.7113
27,2511.9,0.069748,-0.0059669,0.0700027,-4.88972,70.514
28,1995.3,0.0697447,-0.00447458,0.0698881,-3.67087,72.2311
29,1584.9,0.0697787,-0.00326472,0.069855,-2.67873,73.9386
30,1258.9,0.06984,-0.00227952,0.0698772,-1.86942,75.6895
31,1000,0.0700556,-0.00142755,0.0700702,-1.16738,77.4048
32,794.33,0.0701365,-0.000775251,0.0701407,-0.633291,79.2203
33,630.96,0.0703814,-0.000230516,0.0703818,-0.187657,80.9856
34,501.19,0.0702411,0.000217099,0.0702414,0.177088,82.7229
35,398.11,0.070531,0.000599073,0.0705335,0.486645,84.4322
36,316.23,0.0707276,0.000919429,0.0707336,0.744779,86.1488
37,251.19,0.0708779,0.00118263,0.0708878,0.955919,87.9406
38,199.53,0.0712144,0.00139105,0.071228,1.11903,89.6721
39,158.49,0.0713996,0.00155286,0.0714165,1.24592,91.4232
40,125.89,0.0718583,0.00166825,0.0718777,1.32993,93.2304
41,100,0.0720327,0.00173845,0.0720536,1.38252,95.0036
42,79.433,0.0721587,0.00175161,0.0721799,1.39055,96.8309
43,63.096,0.0724643,0.00172678,0.0724848,1.36506,98.6918
44,50.119,0.072658,0.0016652,0.0726771,1.31289,100.772
45,39.811,0.0728126,0.00158338,0.0728298,1.24575,102.716
46,31.623,0.0730541,0.00148343,0.0730692,1.16329,104.735
47,25.119,0.0729994,0.0013784,0.0730124,1.08175,106.855
48,19.953,0.0731306,0.00126134,0.0731415,0.98813,109.13
49,15.849,0.0732584,0.00115291,0.0732675,0.90162,111.48
50,12.589,0.0733698,0.00105878,0.0733774,0.826764,113.959
51,10,0.0734254,0.000980347,0.0734319,0.764946,116.645
52,7.9433,0.0733301,0.000915246,0.0733358,0.715081,119.377
53,6.3096,0.0733727,0.000863953,0.0733778,0.674618,122.193
54,5.0119,0.0731603,0.000831214,0.073165,0.650941,124.995
55,3.9811,0.0731389,0.000813751,0.0731435,0.637452,127.811
56,3.1623,0.0729911,0.000818662,0.0729957,0.642598,130.733
57,2.5119,0.0730769,0.000833287,0.0730816,0.653308,133.771
58,1.9953,0.0731589,0.000875135,0.0731641,0.685346,136.858
59,1.5849,0.0732117,0.000931514,0.0732176,0.728968,140
60,1.2589,0.0732548,0.00101687,0.0732619,0.795287,143.304
61,1,0.0734048,0.0011277,0.0734135,0.880154,146.954
62,0.79433,0.0734694,0.00127453,0.0734805,0.993857,150.608
63,0.63096,0.0733923,0.00145429,0.0734067,1.13518,154.512
64,0.50119,0.0734337,0.00168276,0.073453,1.31272,158.76
65,0.39811,0.0734347,0.00197828,0.0734614,1.54314,163.359
66,0.31623,0.0734001,0.00232565,0.0734369,1.81479,168.551
67,0.25119,0.0734752,0.00271134,0.0735252,2.11333,174.358
68,0.19953,0.0735754,0.00323289,0.0736464,2.51595,180.963
69,0.15849,0.0737689,0.00383311,0.0738684,2.97448,188.66
70,0.12589,0.0737112,0.0045697,0.0738527,3.54749,197.662
71,0.1,0.0739494,0.00554333,0.0741569,4.28693,208.263

File: LFP_3_Pristine_5C.txt
Index,Frequency (Hz),Z' (Ω),-Z'' (Ω),Z (Ω),-Phase (°),Time (s)
1,1000000,1.1638,-1.40013,1.82066,-50.2662,33.9178
2,794330,0.824014,-1.26505,1.50975,-56.921,35.7801
3,630960,0.595132,-1.08949,1.24144,-61.3546,39.1888
4,501190,0.427526,-0.918801,1.0134,-65.0471,42.4999
5,398110,0.311752,-0.762879,0.82412,-67.7725,47.1361
6,316230,0.232699,-0.625731,0.667599,-69.6006,50.2729
7,251190,0.178385,-0.508623,0.538998,-70.6732,53.4332
8,199530,0.144029,-0.412642,0.437056,-70.759,55.1499
9,158490,0.11964,-0.333534,0.354343,-70.2669,56.9733
10,125890,0.103017,-0.269226,0.288262,-69.0611,58.7184
11,100000,0.0914112,-0.217181,0.235634,-67.1738,61.9276
12,79433,0.0833134,-0.175089,0.1939,-64.5532,63.6575
13,63096,0.0775693,-0.141268,0.161164,-61.2292,65.4792
14,50119,0.073312,-0.113965,0.135509,-57.2475,67.3321
15,39811,0.0700784,-0.0919864,0.115639,-52.6986,69.0605
16,31623,0.0675647,-0.07422,0.100367,-47.6875,70.8019
17,25119,0.0652823,-0.0595785,0.088382,-42.3845,72.6151
18,19953,0.0637579,-0.0478976,0.0797449,-36.9154,74.4379
19,15849,0.0626257,-0.0383757,0.0734484,-31.4991,76.1594
20,12589,0.061762,-0.0305639,0.0689108,-26.3292,77.9113
21,10000,0.0611248,-0.0241834,0.0657349,-21.5857,81.1443
22,7943.3,0.0607548,-0.0189195,0.0636325,-17.2969,82.7797
23,6309.6,0.060635,-0.0146427,0.0623779,-13.5764,84.5163
24,5011.9,0.0603478,-0.0110879,0.0613579,-10.4111,86.2431
25,3981.1,0.0604744,-0.00823559,0.0610326,-7.75501,87.9573
26,3162.3,0.0607027,-0.00589166,0.0609879,-5.54363,89.6674
27,2511.9,0.0609742,-0.00392459,0.0611003,-3.68275,91.3892
28,1995.3,0.0612295,-0.00227816,0.0612718,-2.13082,93.0956
29,1584.9,0.0615988,-0.000898968,0.0616054,-0.836111,94.7718
30,1258.9,0.0620374,0.000267433,0.062038,0.246991,96.4706
31,1000,0.062691,0.00134133,0.0627053,1.22571,98.1919
32,794.33,0.0632674,0.00218265,0.063305,1.97585,100.014
33,630.96,0.063593,0.00289546,0.0636589,2.60694,101.723
34,501.19,0.0642678,0.00354565,0.0643655,3.1578,103.509
35,398.11,0.0649729,0.00413607,0.0651044,3.64244,105.206
36,316.23,0.0656643,0.0046821,0.065831,4.0785,106.923
37,251.19,0.0664439,0.00521571,0.0666483,4.4884,108.681
38,199.53,0.0672677,0.00575342,0.0675133,4.88862,110.425
39,158.49,0.0681406,0.00630793,0.0684319,5.28892,112.172
40,125.89,0.0690745,0.00689302,0.0694176,5.69874,113.959
41,100,0.0700771,0.00751153,0.0704786,6.11814,115.767
42,79.433,0.0711415,0.00814588,0.0716064,6.53206,117.593
43,63.096,0.0723379,0.00881679,0.0728732,6.94913,119.465
44,50.119,0.073593,0.0095107,0.074205,7.36373,121.539
45,39.811,0.0749195,0.010244,0.0756166,7.78595,123.49
46,31.623,0.0763843,0.0110283,0.0771763,8.21553,125.514
47,25.119,0.0779676,0.0118831,0.078868,8.66583,127.574
48,19.953,0.0796749,0.0127864,0.0806944,9.11721,129.89
49,15.849,0.0815883,0.0137815,0.0827441,9.58765,132.233
50,12.589,0.0836644,0.01482,0.0849668,10.045,134.706
51,10,0.0860227,0.015875,0.0874753,10.456,137.417
52,7.9433,0.0886427,0.0168733,0.0902344,10.7774,140.13
53,6.3096,0.0915652,0.0177486,0.0932695,10.9699,142.966
54,5.0119,0.0946887,0.0184009,0.0964601,10.9972,145.736
55,3.9811,0.0980403,0.0187818,0.0998231,10.8449,148.565
56,3.1623,0.101344,0.0188308,0.103078,10.5262,151.48
57,2.5119,0.1052,0.0186668,0.106843,10.0619,154.483
58,1.9953,0.108412,0.0181191,0.109916,9.48824,157.596
59,1.5849,0.111459,0.0173343,0.112799,8.83989,160.78
60,1.2589,0.1142,0.016391,0.11537,8.16782,164.083
61,1,0.116634,0.0153731,0.117643,7.50864,167.765
62,0.79433,0.118793,0.0143595,0.119658,6.89237,171.462
63,0.63096,0.12064,0.0134438,0.121387,6.35863,175.347
64,0.50119,0.122281,0.012749,0.122944,5.95215,179.615
65,0.39811,0.123647,0.0122107,0.124248,5.63996,184.217
66,0.31623,0.124973,0.0119212,0.125541,5.44897,189.394
67,0.25119,0.126275,0.0119852,0.126843,5.42187,195.203
68,0.19953,0.127486,0.0121652,0.128065,5.45087,201.814
69,0.15849,0.12865,0.0128247,0.129288,5.69282,209.491
70,0.12589,0.130067,0.0138508,0.130802,6.07851,218.452
71,0.1,0.131515,0.0150379,0.132372,6.52306,229.047

File: LFP_3_Pristine_15C.txt
Index,Frequency (Hz),Z' (Ω),-Z'' (Ω),Z (Ω),-Phase (°),Time (s)
1,1000000,1.01709,-1.20059,1.5735,-49.7302,43.2082
2,794330,0.723707,-1.08692,1.30581,-56.343,45.0621
3,630960,0.526302,-0.936074,1.07389,-60.6534,48.5059
4,501190,0.38183,-0.79078,0.878138,-64.2263,51.8568
5,398110,0.28165,-0.657459,0.715248,-66.8101,56.4479
6,316230,0.212998,-0.540334,0.5808,-68.4858,60.8768
7,251190,0.165538,-0.440303,0.470393,-69.3956,63.9905
8,199530,0.135169,-0.358141,0.3828,-69.3225,67.3291
9,158490,0.113383,-0.290439,0.311786,-68.675,69.0443
10,125890,0.0982907,-0.235522,0.255209,-67.3477,70.7893
11,100000,0.0874422,-0.190928,0.209999,-65.3929,74.0254
12,79433,0.0796015,-0.154671,0.173952,-62.7673,75.7547
13,63096,0.0738031,-0.125342,0.145456,-59.5099,77.6276
14,50119,0.0694611,-0.101654,0.123119,-55.6549,79.455
15,39811,0.0660998,-0.0824278,0.105658,-51.2735,81.1878
16,31623,0.0631474,-0.0665038,0.0917079,-46.4829,83.0042
17,25119,0.0610529,-0.0537576,0.081347,-41.3642,84.7436
18,19953,0.0594718,-0.0433656,0.0736035,-36.0987,86.5728
19,15849,0.0582647,-0.0348309,0.067882,-30.8711,88.3908
20,12589,0.0573905,-0.0278318,0.063783,-25.8713,90.136
21,10000,0.0566132,-0.0220395,0.060752,-21.271,93.2649
22,7943.3,0.0562509,-0.0173207,0.0588572,-17.1145,94.9143
23,6309.6,0.0561181,-0.0134819,0.0577148,-13.5088,96.6625
24,5011.9,0.0557998,-0.0102934,0.0567413,-10.4519,98.4842
25,3981.1,0.055897,-0.00775113,0.0564318,-7.89476,100.2
26,3162.3,0.0560997,-0.00567864,0.0563864,-5.78002,101.902
27,2511.9,0.0563024,-0.00395367,0.056441,-4.01683,103.633
28,1995.3,0.0565192,-0.00251781,0.0565752,-2.55072,105.373
29,1584.9,0.0567782,-0.00132537,0.0567937,-1.33721,107.045
30,1258.9,0.0571057,-0.000333698,0.0571067,-0.334805,108.743
31,1000,0.057609,0.000580974,0.0576119,0.577796,110.481
32,794.33,0.058065,0.00126203,0.0580787,1.24512,112.292
33,630.96,0.0582765,0.00182626,0.0583051,1.79494,114
34,501.19,0.0587773,0.00232403,0.0588233,2.26427,115.784
35,398.11,0.0593236,0.00276056,0.0593878,2.66427,117.489
36,316.23,0.0598719,0.00314964,0.0599547,3.01135,119.235
37,251.19,0.060434,0.00350349,0.0605355,3.31784,120.983
38,199.53,0.0610052,0.00383825,0.0611259,3.60012,122.755
39,158.49,0.0616955,0.00416923,0.0618362,3.86603,124.502
40,125.89,0.0623347,0.00449437,0.0624965,4.12393,126.288
41,100,0.0630015,0.00483577,0.0631868,4.38922,128.081
42,79.433,0.0637138,0.00517938,0.063924,4.64743,129.911
43,63.096,0.0644812,0.00554914,0.0647195,4.91866,131.795
44,50.119,0.0652512,0.00594628,0.0655216,5.20693,133.854
45,39.811,0.0661295,0.00637789,0.0664364,5.50888,135.808
46,31.623,0.0671029,0.00683719,0.0674503,5.81786,137.841
47,25.119,0.0681907,0.00730242,0.0685806,6.11241,139.929
48,19.953,0.0694079,0.00773615,0.0698377,6.35989,142.24
49,15.849,0.0707285,0.0081271,0.0711939,6.55486,144.578
50,12.589,0.0721618,0.0084263,0.0726521,6.66024,147.046
51,10,0.073622,0.0086066,0.0741234,6.66775,149.746
52,7.9433,0.075199,0.00864979,0.0756949,6.56163,152.437
53,6.3096,0.0766959,0.00854741,0.0771707,6.35912,155.278
54,5.0119,0.0781439,0.00830661,0.0785841,6.06769,158.104
55,3.9811,0.0795186,0.00795093,0.0799152,5.70993,160.945
56,3.1623,0.0808152,0.00752259,0.0811646,5.31799,163.873
57,2.5119,0.0819489,0.00704729,0.0822514,4.91512,166.824
58,1.9953,0.0829219,0.00656459,0.0831813,4.52643,169.867
59,1.5849,0.0837954,0.00611838,0.0840184,4.17608,172.986
60,1.2589,0.0845346,0.00573139,0.0847287,3.87868,176.3
61,1,0.0851812,0.00541145,0.0853529,3.63504,179.964
62,0.79433,0.085718,0.00519744,0.0858755,3.46983,183.601
63,0.63096,0.0862357,0.00509139,0.0863858,3.37885,187.494
64,0.50119,0.0867329,0.00515257,0.0868858,3.39979,191.736
65,0.39811,0.0871254,0.00526487,0.0872843,3.4581,196.442
66,0.31623,0.0875811,0.0055588,0.0877573,3.63171,201.629
67,0.25119,0.0880535,0.00609166,0.0882639,3.9575,207.479
68,0.19953,0.0886166,0.00662083,0.0888636,4.27281,214.096
69,0.15849,0.0891058,0.00747664,0.0894189,4.79631,221.782
70,0.12589,0.0896529,0.00858376,0.0900629,5.46908,230.765
71,0.1,0.090392,0.00999594,0.0909431,6.31038,241.408

File: LFP_3_Pristine_25C.txt
Index,Frequency (Hz),Z' (Ω),-Z'' (Ω),Z (Ω),-Phase (°),Time (s)
1,1000000,1.16873,-1.35034,1.78588,-49.1237,14.4788
2,794330,0.840536,-1.22445,1.48518,-55.5319,16.3172
3,630960,0.618877,-1.05974,1.22722,-59.7156,19.7879
4,501190,0.454619,-0.899475,1.00784,-63.1867,25.9367
5,398110,0.339666,-0.752346,0.825468,-65.702,30.5423
6,316230,0.259414,-0.622579,0.674463,-67.3797,33.6905
7,251190,0.202286,-0.511998,0.55051,-68.4415,36.8119
8,199530,0.1641,-0.420311,0.45121,-68.6731,38.5947
9,158490,0.135493,-0.344248,0.369953,-68.5158,40.3446
10,125890,0.114595,-0.281306,0.303752,-67.8355,42.0501
11,100000,0.0990886,-0.229322,0.249814,-66.6311,45.4325
12,79433,0.0878184,-0.186639,0.206267,-64.8018,47.0566
13,63096,0.0794999,-0.151589,0.171171,-62.3255,48.8817
14,50119,0.0733215,-0.122883,0.143095,-59.1763,50.7072
15,39811,0.06879,-0.099576,0.121027,-55.3621,52.4473
16,31623,0.0653438,-0.0805253,0.103702,-50.9418,54.1643
17,25119,0.0624794,-0.0647887,0.090007,-46.0395,55.9856
18,19953,0.0605371,-0.0521808,0.0799223,-40.7601,57.8335
19,15849,0.0591348,-0.0419402,0.0724977,-35.3454,59.6512
20,12589,0.0580547,-0.0335491,0.0670514,-30.023,61.3835
21,10000,0.0571653,-0.0267253,0.063104,-25.0565,64.5481
22,7943.3,0.0567202,-0.0211608,0.0605389,-20.4592,66.1786
23,6309.6,0.0564905,-0.0166572,0.0588951,-16.4291,67.9107
24,5011.9,0.0560978,-0.0129379,0.0575704,-12.9871,69.6358
25,3981.1,0.0560876,-0.00998667,0.0569697,-10.096,71.3758
26,3162.3,0.0561878,-0.00759683,0.056699,-7.69994,73.0824
27,2511.9,0.0562701,-0.00562666,0.0565507,-5.71024,74.8943
28,1995.3,0.0564239,-0.00400776,0.056566,-4.06287,76.6364
29,1584.9,0.0566046,-0.00268377,0.0566682,-2.71451,78.3333
30,1258.9,0.0568051,-0.00160018,0.0568277,-1.61358,80.0243
31,1000,0.0572449,-0.000627636,0.0572484,-0.628169,81.7465
32,794.33,0.0575466,7.73162e-05,0.0575466,0.0769792,83.6082
33,630.96,0.0576489,0.000648567,0.0576526,0.644567,85.318
34,501.19,0.0579962,0.00112875,0.0580072,1.11498,87.046
35,398.11,0.0584029,0.00153594,0.0584231,1.50648,88.7502
36,316.23,0.0587783,0.00188622,0.0588085,1.83801,90.4983
37,251.19,0.0591522,0.00219643,0.059193,2.12652,92.2696
38,199.53,0.0595776,0.00248315,0.0596293,2.38666,93.9963
39,158.49,0.0599935,0.00275711,0.0600568,2.63127,95.7837
40,125.89,0.0604571,0.00302965,0.060533,2.86883,97.5803
41,100,0.0609647,0.00331025,0.0610545,3.10798,99.3658
42,79.433,0.0614966,0.00357028,0.0616002,3.32267,101.172
43,63.096,0.0620773,0.00382759,0.0621952,3.5283,103.08
44,50.119,0.0627105,0.0040639,0.0628421,3.70781,105.163
45,39.811,0.0633995,0.00427527,0.0635435,3.85784,107.121
46,31.623,0.0641215,0.00443965,0.064275,3.96073,109.199
47,25.119,0.0649084,0.00454759,0.0650676,4.00769,111.292
48,19.953,0.0657132,0.00457074,0.065872,3.97885,113.596
49,15.849,0.0665242,0.00453188,0.0666783,3.89719,115.977
50,12.589,0.0673201,0.00441765,0.0674649,3.75445,118.438
51,10,0.0680458,0.00424006,0.0681778,3.56559,121.153
52,7.9433,0.0687475,0.00401585,0.0688647,3.34311,123.903
53,6.3096,0.0693733,0.00376042,0.0694752,3.10271,126.726
54,5.0119,0.069812,0.00349163,0.0698992,2.86325,129.551
55,3.9811,0.0702807,0.00323479,0.0703551,2.63528,132.381
56,3.1623,0.0706824,0.00299886,0.070746,2.42945,135.35
57,2.5119,0.0710357,0.00279759,0.0710908,2.25531,138.363
58,1.9953,0.0713148,0.00263961,0.0713636,2.11975,141.477
59,1.5849,0.0715481,0.00252085,0.0715925,2.01786,144.601
60,1.2589,0.0717994,0.00245939,0.0718416,1.96182,147.956
61,1,0.0719772,0.00244022,0.0720185,1.94174,151.612
62,0.79433,0.072221,0.00249996,0.0722642,1.98253,155.291
63,0.63096,0.0724115,0.00261471,0.0724587,2.068,159.166
64,0.50119,0.0725728,0.00280515,0.072627,2.21354,163.389
65,0.39811,0.0728078,0.00305352,0.0728718,2.40155,168.003
66,0.31623,0.0730299,0.00341243,0.0731096,2.67528,173.242
67,0.25119,0.0732395,0.00387314,0.0733419,3.02716,179.114
68,0.19953,0.0735597,0.00443688,0.0736934,3.45171,185.761
69,0.15849,0.073832,0.00515405,0.0740117,3.99321,193.488
70,0.12589,0.0741537,0.00602145,0.0743977,4.64236,202.42
71,0.1,0.0744947,0.00724328,0.074846,5.55353,213.012

File: LFP_3_Pristine_35C.txt
Index,Frequency (Hz),Z' (Ω),-Z'' (Ω),Z (Ω),-Phase (°),Time (s)
1,1000000,1.19691,-1.39337,1.83686,-49.3373,18.8582
2,794330,0.858952,-1.26294,1.52735,-55.7795,20.7248
3,630960,0.630562,-1.09145,1.26051,-59.9838,24.1389
4,501190,0.461613,-0.924767,1.03358,-63.4731,30.2954
5,398110,0.343728,-0.771142,0.84428,-65.9756,34.915
6,316230,0.262286,-0.636563,0.688482,-67.6066,38.0245
7,251190,0.204979,-0.521844,0.560658,-68.5552,41.1524
8,199530,0.167271,-0.427058,0.458648,-68.6106,42.869
9,158490,0.13937,-0.348467,0.375304,-68.201,44.6821
10,125890,0.119321,-0.283859,0.307918,-67.2004,46.4195
11,100000,0.104617,-0.230799,0.253402,-65.6161,49.7144
12,79433,0.0940376,-0.187492,0.209753,-63.3637,51.4359
13,63096,0.086251,-0.152021,0.174785,-60.4311,53.1925
14,50119,0.0803559,-0.123135,0.147035,-56.8721,55.0058
15,39811,0.0760406,-0.0997244,0.125408,-52.6742,56.822
16,31623,0.072785,-0.080703,0.108677,-47.9531,58.6383
17,25119,0.0699336,-0.0649256,0.0954256,-42.8733,60.4052
18,19953,0.068017,-0.0523544,0.0858329,-37.5864,62.2162
19,15849,0.0665648,-0.0421123,0.0787675,-32.3195,64.0344
20,12589,0.0655177,-0.0337712,0.0737093,-27.2689,65.8989
21,10000,0.0645143,-0.0269479,0.0699163,-22.6705,69.0203
22,7943.3,0.0640428,-0.0214032,0.0675247,-18.4797,70.6607
23,6309.6,0.0638134,-0.0169398,0.0660235,-14.8668,72.44
24,5011.9,0.0633397,-0.0132537,0.0647115,-11.8185,74.2534
25,3981.1,0.0633112,-0.0103443,0.0641507,-9.27948,75.9635
26,3162.3,0.0633885,-0.00799622,0.0638908,-7.18968,77.6696
27,2511.9,0.0633379,-0.00605765,0.063627,-5.46316,79.4205
28,1995.3,0.0633812,-0.00448908,0.06354,-4.0513,81.1465
29,1584.9,0.0634543,-0.00321667,0.0635357,-2.902,82.8327
30,1258.9,0.0636047,-0.00218656,0.0636422,-1.9689,84.5553
31,1000,0.0639302,-0.00127136,0.0639428,-1.13927,86.2775
32,794.33,0.0641053,-0.000613559,0.0641082,-0.548367,88.0997
33,630.96,0.0640416,-7.87882e-05,0.0640417,-0.070489,89.8226
34,501.19,0.0642289,0.000371505,0.06423,0.3314,91.6008
35,398.11,0.0645046,0.000751784,0.064509,0.667737,93.2965
36,316.23,0.0647588,0.00108257,0.0647678,0.957723,95.023
37,251.19,0.0650489,0.00137258,0.0650634,1.2088,96.9903
38,199.53,0.0652811,0.00163076,0.0653015,1.43099,103.213
39,158.49,0.0656635,0.00186293,0.06569,1.62509,104.975
40,125.89,0.0660528,0.0020635,0.066085,1.78934,106.782
41,100,0.066417,0.00223852,0.0664548,1.93037,108.555
42,79.433,0.0668299,0.00236056,0.0668716,2.02296,110.423
43,63.096,0.0672569,0.00244197,0.0673012,2.07939,112.301
44,50.119,0.0676626,0.00247448,0.0677078,2.09442,114.369
45,39.811,0.0680845,0.00246727,0.0681292,2.0754,116.311
46,31.623,0.0685058,0.00241816,0.0685484,2.02162,118.334
47,25.119,0.068867,0.00233304,0.0689065,1.94029,120.42
48,19.953,0.0692192,0.00220534,0.0692543,1.82484,122.806
49,15.849,0.0695831,0.00207139,0.0696139,1.70511,125.15
50,12.589,0.0698614,0.0019287,0.069888,1.58139,127.618
51,10,0.0700523,0.00178043,0.0700749,1.4559,130.356
52,7.9433,0.0702903,0.00164858,0.0703096,1.34356,133.07
53,6.3096,0.0704736,0.00152567,0.0704902,1.24019,135.87
54,5.0119,0.0705902,0.00143133,0.0706047,1.16161,138.646
55,3.9811,0.0706967,0.00135179,0.0707096,1.09542,147.018
56,3.1623,0.0708146,0.00129824,0.0708265,1.05029,149.992
57,2.5119,0.0709055,0.00126844,0.0709168,1.02486,152.919
58,1.9953,0.0710016,0.00126713,0.0710129,1.02242,156.045
59,1.5849,0.0711151,0.00129126,0.0711269,1.04023,159.17
60,1.2589,0.0711787,0.00135047,0.0711915,1.08694,162.506
61,1,0.0712611,0.00143223,0.0712755,1.1514,166.138
62,0.79433,0.0713985,0.00157343,0.0714158,1.26244,169.832
63,0.63096,0.0714777,0.00174784,0.071499,1.40077,173.717
64,0.50119,0.0715653,0.00199228,0.071593,1.59462,177.951
65,0.39811,0.071699,0.00225601,0.0717344,1.80222,182.558
66,0.31623,0.0718049,0.00261531,0.0718525,2.08593,187.754
67,0.25119,0.0719248,0.00309449,0.0719914,2.46357,193.607
68,0.19953,0.0721781,0.00359199,0.0722674,2.84901,200.252
69,0.15849,0.0723198,0.00426328,0.0724454,3.3737,207.944
70,0.12589,0.0724901,0.00507431,0.0726675,4.00417,216.876
71,0.1,0.0728183,0.00615524,0.073078,4.83165,227.497