Folder: ECSHackWeek_Dallas/tutorials/data/eis (part 3)

File: LCO_3_Pristine_15C.txt
Index,Frequency (Hz),Z' (Ω),-Z'' (Ω),Z (Ω),-Phase (°),Time (s)
1,1000000,1.12663,-1.25363,1.68549,-48.0541,14.3547
2,794330,0.806495,-1.14961,1.40429,-54.9489,16.1906
3,630960,0.587246,-1.00011,1.15977,-59.5793,19.6413
4,501190,0.425044,-0.852069,0.9522,-63.4883,22.9489
5,398110,0.31071,-0.712907,0.777674,-66.4507,27.5848
6,316230,0.231363,-0.588615,0.632453,-68.5421,30.7448
7,251190,0.176075,-0.481841,0.513004,-69.9267,33.8447
8,199530,0.140178,-0.393157,0.4174,-70.3766,35.5704
9,158490,0.114368,-0.319846,0.339679,-70.3244,37.4093
10,125890,0.0962847,-0.259646,0.276924,-69.6537,39.1165
11,100000,0.0833305,-0.210522,0.226415,-68.405,42.3415
12,79433,0.0740358,-0.170596,0.185968,-66.5399,43.9929
13,63096,0.067238,-0.138185,0.153675,-64.0534,45.8033
14,50119,0.0621935,-0.111822,0.127954,-60.918,47.6256
15,39811,0.0584118,-0.090366,0.107601,-57.1217,49.4614
16,31623,0.0553098,-0.0725896,0.0912602,-52.6943,51.1828
17,25119,0.0532356,-0.0584439,0.0790552,-47.6701,53.0035
18,19953,0.0516928,-0.0469207,0.0698119,-42.2295,54.8208
19,15849,0.0506206,-0.0376035,0.0630592,-36.6068,56.6023
20,12589,0.0498298,-0.0300213,0.0581746,-31.068,58.3232
21,10000,0.0492303,-0.0238255,0.0546925,-25.8252,61.4625
22,7943.3,0.0488797,-0.0188288,0.0523808,-21.067,63.1341
23,6309.6,0.048707,-0.0147928,0.0509038,-16.8941,64.8594
24,5011.9,0.0483881,-0.0114639,0.0497276,-13.3285,66.6015
25,3981.1,0.0483878,-0.00881977,0.0491851,-10.33,68.3393
26,3162.3,0.0484709,-0.00667244,0.048928,-7.838,70.0587
27,2511.9,0.0485754,-0.00491347,0.0488233,-5.7759,71.7954
28,1995.3,0.0487105,-0.00345484,0.0488329,-4.05697,73.5069
29,1584.9,0.0488788,-0.00224564,0.0489304,-2.63049,75.2495
30,1258.9,0.0491233,-0.00124645,0.0491391,-1.4535,76.9508
31,1000,0.0495584,-0.000362988,0.0495597,-0.419653,78.6714
32,794.33,0.0498938,0.000318354,0.0498948,0.365578,80.4797
33,630.96,0.05003,0.000875702,0.0500376,1.00278,82.2136
34,501.19,0.0504188,0.00134568,0.0504367,1.52886,83.944
35,398.11,0.0508234,0.00173616,0.0508531,1.9565,85.6507
36,316.23,0.0512813,0.00206161,0.0513227,2.30216,87.3941
37,251.19,0.0517368,0.00232515,0.051789,2.57326,89.2077
38,199.53,0.0522057,0.00254016,0.0522674,2.78563,90.9397
39,158.49,0.0527136,0.00271351,0.0527834,2.94678,92.6808
40,125.89,0.0532045,0.00285366,0.053281,3.07016,94.5229
41,100,0.0536957,0.0029732,0.0537779,3.16931,96.3038
42,79.433,0.0541228,0.0030588,0.0542092,3.23468,98.136
43,63.096,0.0545686,0.00314682,0.0546592,3.30043,99.9989
44,50.119,0.0549895,0.00324666,0.0550853,3.3789,102.094
45,39.811,0.0553856,0.00337767,0.0554885,3.48984,104.036
46,31.623,0.0557689,0.00355421,0.055882,3.64659,106.074
47,25.119,0.0561746,0.00379343,0.0563025,3.86328,108.175
48,19.953,0.0566047,0.0040949,0.0567526,4.13768,110.476
49,15.849,0.0570554,0.00449815,0.0572325,4.50778,112.816
50,12.589,0.0575534,0.00499127,0.0577694,4.95653,115.299
51,10,0.058126,0.0055845,0.0583937,5.48789,117.993
52,7.9433,0.0588091,0.00627945,0.0591434,6.09476,120.767
53,6.3096,0.0596711,0.00706528,0.060088,6.75259,123.597
54,5.0119,0.060682,0.00792083,0.0611967,7.43678,126.399
55,3.9811,0.0618756,0.00881254,0.0625,8.10575,129.22
56,3.1623,0.0632688,0.00971053,0.0640097,8.7257,132.151
57,2.5119,0.0648934,0.0105604,0.065747,9.24299,135.158
58,1.9953,0.0666823,0.0113261,0.0676374,9.63978,138.23
59,1.5849,0.0686313,0.0119545,0.0696647,9.8809,141.353
60,1.2589,0.0707111,0.012434,0.071796,9.97308,144.694
61,1,0.0728227,0.012772,0.0739342,9.94765,148.359
62,0.79433,0.0749908,0.0129338,0.076098,9.7856,152.026
63,0.63096,0.0770711,0.0129822,0.0781568,9.56137,155.916
64,0.50119,0.0791021,0.0129579,0.0801564,9.30316,160.182
65,0.39811,0.0810119,0.01292,0.0820357,9.06141,164.9
66,0.31623,0.0828785,0.0128644,0.083871,8.82303,170.026
67,0.25119,0.0848003,0.0128863,0.0857738,8.6406,175.857
68,0.19953,0.0863457,0.0128049,0.08729,8.43538,182.539
69,0.15849,0.0879558,0.0130246,0.0889149,8.42323,190.296
70,0.12589,0.0895763,0.0133276,0.0905623,8.46264,199.228
71,0.1,0.0913442,0.0137295,0.0923702,8.54789,209.846

File: LCO_3_Pristine_25C.txt
Index,Frequency (Hz),Z' (Ω),-Z'' (Ω),Z (Ω),-Phase (°),Time (s)
1,1000000,1.3366,-1.46141,1.98046,-47.554,98.3465
2,794330,0.966796,-1.34112,1.65327,-54.2126,100.198
3,630960,0.711657,-1.17037,1.36975,-58.6978,102.026
4,501190,0.522369,-1.0011,1.12919,-62.4448,108.26
5,398110,0.388002,-0.841726,0.926849,-65.2522,112.887
6,316230,0.293249,-0.699469,0.758454,-67.2544,116.032
7,251190,0.225557,-0.576855,0.619385,-68.6439,119.198
8,199530,0.18008,-0.47514,0.508121,-69.2431,120.934
9,158490,0.145964,-0.390263,0.416666,-69.4934,122.751
10,125890,0.120968,-0.31985,0.341961,-69.2832,124.458
11,100000,0.102365,-0.261506,0.280827,-68.6225,127.818
12,79433,0.0885486,-0.213287,0.230938,-67.4536,129.444
13,63096,0.07822,-0.173474,0.190293,-65.7292,131.255
14,50119,0.0705422,-0.140767,0.157453,-63.3832,133.103
15,39811,0.0649234,-0.114022,0.13121,-60.3431,134.936
16,31623,0.0608074,-0.0921154,0.110376,-56.5703,136.754
17,25119,0.0578428,-0.0742468,0.0941189,-52.0792,138.621
18,19953,0.0554183,-0.0594391,0.0812662,-47.0049,140.343
19,15849,0.0538885,-0.0476616,0.0719416,-41.4911,142.08
20,12589,0.0528212,-0.0381373,0.0651501,-35.8295,143.801
21,10000,0.0519667,-0.0303903,0.0602006,-30.3192,146.971
22,7943.3,0.05148,-0.0241442,0.0568606,-25.1267,148.621
23,6309.6,0.0512157,-0.019122,0.054669,-20.4737,150.336
24,5011.9,0.050789,-0.014981,0.0529523,-16.4342,152.165
25,3981.1,0.0507227,-0.0117164,0.0520583,-13.0065,153.882
26,3162.3,0.050768,-0.00908455,0.0515744,-10.1453,155.592
27,2511.9,0.0507862,-0.00693481,0.0512575,-7.77559,157.414
28,1995.3,0.050877,-0.00518186,0.0511402,-5.81556,159.156
29,1584.9,0.0510105,-0.00375825,0.0511487,-4.21371,160.842
30,1258.9,0.0512005,-0.0026026,0.0512666,-2.90993,162.538
31,1000,0.051485,-0.00159861,0.0515098,-1.77847,164.279
32,794.33,0.0517605,-0.000856066,0.0517675,-0.947528,166.096
33,630.96,0.0517883,-0.000264746,0.051789,-0.292898,167.809
34,501.19,0.0520926,0.000213652,0.052093,0.234991,169.549
35,398.11,0.0523772,0.000596062,0.0523806,0.652008,171.277
36,316.23,0.0526807,0.000900282,0.0526884,0.979055,173.004
37,251.19,0.052959,0.00114108,0.0529713,1.23434,174.77
38,199.53,0.0532951,0.00133112,0.0533117,1.43074,176.513
39,158.49,0.0536314,0.0014817,0.0536519,1.58254,178.272
40,125.89,0.0539057,0.00160336,0.0539295,1.70369,180.068
41,100,0.0541866,0.00171575,0.0542138,1.81359,181.755
42,79.433,0.0544572,0.00180687,0.0544872,1.90035,183.625
43,63.096,0.0546894,0.00190568,0.0547226,1.99569,185.511
44,50.119,0.0549235,0.00202755,0.0549609,2.11416,187.597
45,39.811,0.0551668,0.00218298,0.05521,2.26604,189.577
46,31.623,0.0554307,0.00238116,0.0554819,2.45977,191.596
47,25.119,0.0557129,0.00262532,0.0557747,2.69792,193.666
48,19.953,0.0560356,0.00290623,0.0561109,2.96893,195.981
49,15.849,0.0564441,0.00324495,0.0565373,3.29029,198.32
50,12.589,0.0568954,0.00361749,0.0570103,3.63805,200.784
51,10,0.0574287,0.00401548,0.0575689,3.99968,203.528
52,7.9433,0.0580785,0.00442365,0.0582467,4.35562,206.238
53,6.3096,0.0587856,0.00481163,0.0589822,4.67925,209.045
54,5.0119,0.0595944,0.00516422,0.0598177,4.95267,211.831
55,3.9811,0.0605043,0.00545447,0.0607496,5.1513,214.646
56,3.1623,0.0614246,0.00566921,0.0616857,5.2732,217.595
57,2.5119,0.0624404,0.00580359,0.0627095,5.31016,220.6
58,1.9953,0.0634188,0.00586017,0.063689,5.27938,223.704
59,1.5849,0.0643576,0.0058423,0.0646223,5.18701,226.861
60,1.2589,0.0652739,0.00577983,0.0655293,5.06019,230.168
61,1,0.0661503,0.00569704,0.0663951,4.92232,233.862
62,0.79433,0.0669714,0.00560011,0.0672051,4.77992,237.506
63,0.63096,0.0677128,0.00552314,0.0679377,4.66312,241.408
64,0.50119,0.0684142,0.00548925,0.068634,4.58733,245.639
65,0.39811,0.0690719,0.00554169,0.0692939,4.58706,250.325
66,0.31623,0.0696976,0.00563245,0.0699249,4.62018,255.536
67,0.25119,0.0704023,0.00582167,0.0706426,4.72712,261.404
68,0.19953,0.0709023,0.00605679,0.0711606,4.88261,268.012
69,0.15849,0.0715561,0.00646738,0.0718478,5.16447,275.71
70,0.12589,0.0722249,0.00696012,0.0725595,5.50444,284.707
71,0.1,0.0729509,0.00750622,0.0733361,5.87473,295.294

File: LCO_3_Pristine_35C.txt
Index,Frequency (Hz),Z' (Ω),-Z'' (Ω),Z (Ω),-Phase (°),Time (s)
1,1000000,1.32864,-1.45985,1.97394,-47.6939,19.0483
2,794330,0.957118,-1.33757,1.64474,-54.4139,20.8969
3,630960,0.702823,-1.16712,1.3624,-58.9443,24.3006
4,501190,0.512745,-0.994047,1.1185,-62.7146,27.6436
5,398110,0.379213,-0.831522,0.91391,-65.4848,30.8898
6,316230,0.286932,-0.687318,0.744807,-67.3411,35.3561
7,251190,0.222765,-0.561878,0.604426,-68.3734,38.5297
8,199530,0.180962,-0.458491,0.492911,-68.4613,40.2503
9,158490,0.15094,-0.372701,0.402105,-67.9526,42.0937
10,125890,0.13007,-0.302531,0.329307,-66.7351,43.8049
11,100000,0.115141,-0.245365,0.271038,-64.8611,47.0085
12,79433,0.104475,-0.198939,0.224704,-62.2933,48.7237
13,63096,0.0965803,-0.161244,0.187956,-59.0797,50.5906
14,50119,0.090636,-0.130594,0.158964,-55.2382,52.4136
15,39811,0.0861303,-0.105656,0.136315,-50.8133,54.231
16,31623,0.0827734,-0.0853973,0.118929,-45.8939,55.9575
17,25119,0.0802129,-0.0688859,0.105733,-40.6556,57.7083
18,19953,0.0779422,-0.0552452,0.0955354,-35.3289,59.4399
19,15849,0.0765517,-0.0443654,0.0884786,-30.0944,61.2613
20,12589,0.0755413,-0.0355362,0.0834824,-25.1933,62.9915
21,10000,0.0748694,-0.0283882,0.0800707,-20.7652,66.1199
22,7943.3,0.0744301,-0.0225984,0.0777851,-16.8893,67.7457
23,6309.6,0.0741657,-0.0179291,0.076302,-13.5902,69.4677
24,5011.9,0.0736467,-0.0140949,0.0749834,-10.8345,71.2154
25,3981.1,0.0736275,-0.0110778,0.0744562,-8.55636,72.9172
26,3162.3,0.0736044,-0.00862581,0.0741081,-6.68409,74.6243
27,2511.9,0.0735808,-0.00663927,0.0738798,-5.15589,76.4695
28,1995.3,0.0735837,-0.00504052,0.0737561,-3.91867,78.192
29,1584.9,0.0736624,-0.003756,0.0737581,-2.91895,79.8705
30,1258.9,0.0737522,-0.00272418,0.0738025,-2.11537,81.5664
31,1000,0.0740599,-0.00186852,0.0740834,-1.44526,83.3477
32,794.33,0.0742684,-0.00121755,0.0742784,-0.939221,85.1699
33,630.96,0.0744466,-0.000696614,0.0744499,-0.536114,86.8824
34,501.19,0.0743736,-0.000293363,0.0743742,-0.225999,88.6295
35,398.11,0.0745724,3.47851e-05,0.0745724,0.0267263,90.3328
36,316.23,0.0747599,0.00029215,0.0747605,0.223902,92.0677
37,251.19,0.0749541,0.000496732,0.0749558,0.379702,93.8244
38,199.53,0.075149,0.000659281,0.0751519,0.502642,95.5887
39,158.49,0.0753677,0.000792278,0.0753719,0.602281,97.3344
40,125.89,0.0755701,0.000911278,0.0755756,0.69088,99.1277
41,100,0.0757531,0.00102584,0.07576,0.775846,100.903
42,79.433,0.0759139,0.00112599,0.0759223,0.849771,102.743
43,63.096,0.0760729,0.00123543,0.0760829,0.930407,104.602
44,50.119,0.0762488,0.00135822,0.0762609,1.0205,106.682
45,39.811,0.0764248,0.00149766,0.0764395,1.12266,108.68
46,31.623,0.0766556,0.00165241,0.0766734,1.2349,110.695
47,25.119,0.076905,0.00181867,0.0769265,1.3547,112.76
48,19.953,0.0772165,0.00197321,0.0772418,1.46383,115.09
49,15.849,0.0775671,0.00213194,0.0775964,1.57439,117.457
50,12.589,0.0779633,0.0022757,0.0779965,1.67195,119.927
51,10,0.0783515,0.00239388,0.0783881,1.75002,122.638
52,7.9433,0.078773,0.0024793,0.078812,1.80273,125.348
53,6.3096,0.0792583,0.00253521,0.0792989,1.83207,128.194
54,5.0119,0.0796445,0.00255721,0.0796856,1.83901,130.975
55,3.9811,0.080086,0.00255266,0.0801267,1.82563,133.827
56,3.1623,0.0805697,0.00252536,0.0806093,1.79528,136.771
57,2.5119,0.0809854,0.00249565,0.0810238,1.76507,139.767
58,1.9953,0.0813564,0.00246277,0.0813937,1.73389,142.836
59,1.5849,0.0817395,0.00244122,0.0817759,1.71068,145.959
60,1.2589,0.0820583,0.00243277,0.0820944,1.69814,149.263
61,1,0.0823625,0.00243734,0.0823986,1.69505,152.924
62,0.79433,0.0826827,0.00249588,0.0827203,1.72902,156.581
63,0.63096,0.083034,0.00258426,0.0830742,1.78263,160.49
64,0.50119,0.0832812,0.00274179,0.0833263,1.88562,164.718
65,0.39811,0.0836297,0.00290468,0.0836801,1.98923,169.328
66,0.31623,0.083967,0.0031389,0.0840257,2.14086,174.51
67,0.25119,0.0843204,0.00348439,0.0843923,2.3663,180.375
68,0.19953,0.0847925,0.0037948,0.0848774,2.5625,186.982
69,0.15849,0.0851716,0.00426062,0.0852781,2.86378,194.672
70,0.12589,0.0856455,0.0047885,0.0857792,3.20011,203.648
71,0.1,0.0861371,0.00549268,0.086312,3.64863,214.23

File: LCO_3_Pristine_45C.txt
Index,Frequency (Hz),Z' (Ω),-Z'' (Ω),Z (Ω),-Phase (°),Time (s)
1,1000000,1.43653,-1.62672,2.17021,-48.5527,19.1285
2,794330,1.02637,-1.48738,1.80714,-55.3922,20.9599
3,630960,0.744768,-1.29794,1.49644,-60.1524,24.3938
4,501190,0.534493,-1.10496,1.22744,-64.1859,27.7026
5,398110,0.386769,-0.924475,1.00212,-67.2972,33.7293
6,316230,0.284512,-0.762455,0.813809,-69.5368,36.8292
7,251190,0.213575,-0.623217,0.658797,-71.0836,39.9464
8,199530,0.167667,-0.507634,0.534607,-71.7221,41.6674
9,158490,0.134974,-0.412345,0.433873,-71.875,43.5027
10,125890,0.112271,-0.334155,0.352511,-71.4285,45.2176
11,100000,0.0962551,-0.270587,0.287197,-70.4181,48.5203
12,79433,0.0848233,-0.218819,0.234685,-68.8116,50.2822
13,63096,0.076529,-0.176933,0.192774,-66.61,52.084
14,50119,0.0703518,-0.142805,0.159194,-63.7732,53.9021
15,39811,0.0658671,-0.115317,0.132802,-60.2657,55.7348
16,31623,0.0625143,-0.0929648,0.112029,-56.0811,57.4916
17,25119,0.060028,-0.0748693,0.0959623,-51.2784,59.3024
18,19953,0.0578691,-0.0599046,0.083291,-45.9902,61.12
19,15849,0.0565353,-0.0480809,0.074216,-40.3798,62.929
20,12589,0.0555352,-0.0384944,0.0675721,-34.7279,64.6651
21,10000,0.0548465,-0.0307525,0.0628797,-29.2794,67.8964
22,7943.3,0.0543809,-0.0244923,0.0596419,-24.2461,69.5729
23,6309.6,0.0540963,-0.0194748,0.057495,-19.799,71.2897
24,5011.9,0.0536469,-0.0153598,0.0558025,-15.9771,73.0195
25,3981.1,0.053564,-0.0121322,0.0549208,-12.7621,74.7313
26,3162.3,0.0535482,-0.00954297,0.0543919,-10.1048,76.4544
27,2511.9,0.0534967,-0.00744122,0.0540118,-7.91884,78.1684
28,1995.3,0.053504,-0.00574473,0.0538115,-6.12838,79.893
29,1584.9,0.0535363,-0.00437949,0.0537151,-4.67662,81.5849
30,1258.9,0.0536297,-0.00328728,0.0537303,-3.50761,83.2808
31,1000,0.0538887,-0.00236512,0.0539405,-2.51304,85.0065
32,794.33,0.0540314,-0.00167792,0.0540574,-1.77872,86.8337
33,630.96,0.0539332,-0.00113144,0.053945,-1.2018,88.5993
34,501.19,0.0540429,-0.000698512,0.0540474,-0.740515,90.3361
35,398.11,0.0541761,-0.000359411,0.0541773,-0.380102,92.0487
36,316.23,0.0543014,-8.84673e-05,0.0543015,-0.0933456,93.7699
37,251.19,0.054449,0.000124402,0.0544491,0.130906,95.5366
38,199.53,0.0545817,0.000295699,0.0545825,0.310399,97.2728
39,158.49,0.0547208,0.000442129,0.0547226,0.462924,99.0163
40,125.89,0.0548196,0.00056901,0.0548225,0.594691,100.813
41,100,0.054969,0.000693528,0.0549734,0.722846,102.584
42,79.433,0.0550774,0.000795597,0.0550832,0.827584,104.402
43,63.096,0.055225,0.000896395,0.0552323,0.929926,106.264
44,50.119,0.0553667,0.000993016,0.0553756,1.0275,108.371
45,39.811,0.0555287,0.00108937,0.0555394,1.1239,110.326
46,31.623,0.0556975,0.00117641,0.0557099,1.20999,112.354
47,25.119,0.0559139,0.0012565,0.055928,1.28734,114.461
48,19.953,0.0561157,0.00130497,0.0561308,1.33217,116.749
49,15.849,0.0563596,0.00134549,0.0563757,1.36758,119.117
50,12.589,0.0565926,0.0013686,0.0566091,1.38534,121.606
51,10,0.0567794,0.00137336,0.056796,1.38558,124.301
52,7.9433,0.0570069,0.00136357,0.0570232,1.37022,127.033
53,6.3096,0.0571945,0.00134868,0.0572104,1.35082,129.857
54,5.0119,0.0574236,0.00133112,0.057439,1.32792,132.648
55,3.9811,0.0576034,0.0013095,0.0576183,1.30228,135.473
56,3.1623,0.0577722,0.0012979,0.0577867,1.28698,138.335
57,2.5119,0.0579339,0.0013038,0.0579486,1.28922,141.271
58,1.9953,0.0580625,0.00131844,0.0580775,1.30081,144.339
59,1.5849,0.0581538,0.00135346,0.0581695,1.33326,147.545
60,1.2589,0.0583445,0.00140888,0.0583615,1.38329,150.859
61,1,0.0584349,0.00149157,0.0584539,1.46217,154.51
62,0.79433,0.0586095,0.00160055,0.0586314,1.56429,158.172
63,0.63096,0.0587397,0.00175033,0.0587658,1.70679,162.042
64,0.50119,0.0589336,0.00193395,0.0589654,1.87952,166.302
65,0.39811,0.0591087,0.00217021,0.0591485,2.1027,170.974
66,0.31623,0.0593494,0.00243942,0.0593995,2.35369,176.154
67,0.25119,0.0596363,0.00271688,0.0596982,2.60844,181.978
68,0.19953,0.0598283,0.00308088,0.0599076,2.94787,188.596
69,0.15849,0.0601137,0.00352459,0.060217,3.35553,196.267
70,0.12589,0.0604331,0.00399232,0.0605649,3.77957,205.201
71,0.1,0.0607112,0.00457781,0.0608836,4.31211,215.811

File: LFP_1_Pristine_5C.txt
Index,Frequency (Hz),Z' (Ω),-Z'' (Ω),Z (Ω),-Phase (°),Time (s)
1,1000000,1.17298,-1.41588,1.83864,-50.3602,18.9939
2,794330,0.830916,-1.2795,1.52563,-57,20.8499
3,630960,0.59908,-1.10072,1.25319,-61.4422,24.2857
4,501190,0.430195,-0.928547,1.02336,-65.1418,27.6371
5,398110,0.313378,-0.770844,0.832109,-67.8764,32.2588
6,316230,0.233617,-0.63201,0.673805,-69.7136,35.3814
7,251190,0.178867,-0.513704,0.543954,-70.8024,38.5089
8,199530,0.144163,-0.41646,0.440706,-70.9061,40.2701
9,158490,0.119743,-0.336825,0.357477,-70.4294,42.0942
10,125890,0.103037,-0.271824,0.290697,-69.2404,43.8264
11,100000,0.091398,-0.219205,0.237496,-67.3662,47.1658
12,79433,0.0833133,-0.176734,0.195386,-64.7605,48.8954
13,63096,0.077553,-0.142574,0.162302,-61.4561,50.7
14,50119,0.073275,-0.115003,0.136363,-57.4964,52.5157
15,39811,0.0700155,-0.0927836,0.116237,-52.9614,54.2458
16,31623,0.0675286,-0.0748858,0.100837,-47.9573,55.9838
17,25119,0.0652467,-0.060105,0.0887116,-42.6512,57.7282
18,19953,0.0637284,-0.0483124,0.0799712,-37.1657,59.4554
19,15849,0.0625504,-0.0386674,0.0735372,-31.7235,61.1882
20,12589,0.0617073,-0.0307908,0.0689628,-26.5184,62.9888
21,10000,0.0610733,-0.0243402,0.0657449,-21.7293,66.2214
22,7943.3,0.0607489,-0.01905,0.0636658,-17.4107,67.8523
23,6309.6,0.0606656,-0.0147417,0.062431,-13.6581,69.6018
24,5011.9,0.0603626,-0.0111571,0.0613851,-10.4721,71.3389
25,3981.1,0.0605405,-0.00828941,0.0611053,-7.79665,73.0583
26,3162.3,0.0607704,-0.00592714,0.0610588,-5.57063,74.8534
27,2511.9,0.0610131,-0.00394604,0.0611405,-3.70047,76.6736
28,1995.3,0.0613145,-0.00229262,0.0613573,-2.14136,78.4061
29,1584.9,0.0616848,-0.000905113,0.0616914,-0.840652,80.0909
30,1258.9,0.0621037,0.000267105,0.0621043,0.246425,81.8132
31,1000,0.0627869,0.00133512,0.0628011,1.21817,83.5422
32,794.33,0.0633508,0.00218131,0.0633883,1.97205,85.3555
33,630.96,0.0637489,0.00289804,0.0638148,2.60288,87.0553
34,501.19,0.0643851,0.00354564,0.0644827,3.15205,88.803
35,398.11,0.0651139,0.00413343,0.065245,3.63226,90.5
36,316.23,0.0658426,0.00467945,0.0660087,4.06518,92.2203
37,251.19,0.0665852,0.00520749,0.0667885,4.47188,93.9734
38,199.53,0.0673999,0.00573704,0.0676436,4.86525,95.7095
39,158.49,0.0682914,0.00629087,0.0685806,5.26312,97.4723
40,125.89,0.0692058,0.00687188,0.0695462,5.67066,99.2724
41,100,0.070241,0.00749719,0.0706399,6.09241,101.044
42,79.433,0.0713024,0.00814059,0.0717656,6.51325,102.889
43,63.096,0.0724302,0.00881582,0.0729648,6.9396,104.758
44,50.119,0.0736826,0.00953448,0.0742969,7.37307,106.826
45,39.811,0.0750475,0.0102993,0.075751,7.81428,108.777
46,31.623,0.0765143,0.0111187,0.0773179,8.26806,110.795
47,25.119,0.0781216,0.012009,0.0790392,8.7392,112.862
48,19.953,0.0798629,0.0129492,0.0809058,9.20995,115.158
49,15.849,0.0818304,0.0139678,0.0830139,9.68655,117.493
50,12.589,0.0839993,0.0150231,0.0853321,10.14,119.96
51,10,0.0863992,0.0160514,0.0878776,10.5245,122.665
52,7.9433,0.0891418,0.0170181,0.0907517,10.8083,125.375
53,6.3096,0.0921574,0.0178153,0.0938635,10.9411,128.236
54,5.0119,0.0952878,0.0183615,0.0970408,10.9069,131.053
55,3.9811,0.0986128,0.0186252,0.100356,10.6956,133.869
56,3.1623,0.1019,0.018556,0.103576,10.3205,136.79
57,2.5119,0.105671,0.0182934,0.107243,9.82149,139.786
58,1.9953,0.108795,0.0176737,0.110221,9.22712,142.873
59,1.5849,0.111706,0.0168436,0.112969,8.57474,145.999
60,1.2589,0.114253,0.0158808,0.115351,7.91328,149.281
61,1,0.116595,0.0148786,0.117541,7.27218,153.003
62,0.79433,0.118645,0.0139168,0.119458,6.6901,156.657
63,0.63096,0.120365,0.0130505,0.121071,6.18805,160.555
64,0.50119,0.121887,0.0124344,0.122519,5.82494,164.788
65,0.39811,0.123248,0.0119364,0.123825,5.53176,169.461
66,0.31623,0.124428,0.011714,0.124978,5.37816,174.64
67,0.25119,0.125626,0.0118947,0.126188,5.40882,180.451
68,0.19953,0.126828,0.0121246,0.127406,5.46082,187.048
69,0.15849,0.127939,0.0128457,0.128582,5.73358,194.735
70,0.12589,0.129168,0.0139706,0.129921,6.17301,203.727
71,0.1,0.130558,0.0153261,0.131454,6.69526,214.304

File: LFP_1_Pristine_15C.txt
Index,Frequency (Hz),Z' (Ω),-Z'' (Ω),Z (Ω),-Phase (°),Time (s)
1,1000000,0.990474,-1.17628,1.53775,-49.9012,19.0768
2,794330,0.702582,-1.06422,1.27522,-56.5677,20.9653
3,630960,0.509699,-0.916121,1.04837,-60.9099,22.8184
4,501190,0.368704,-0.774148,0.857466,-64.5329,26.2386
5,398110,0.270727,-0.643543,0.69817,-67.1844,30.8629
6,316230,0.203564,-0.52848,0.56633,-68.9339,35.2838
7,251190,0.157339,-0.430728,0.458566,-69.9334,38.3904
8,199530,0.127807,-0.350346,0.37293,-69.958,40.1174
9,158490,0.10661,-0.284177,0.303516,-69.4362,41.9649
10,125890,0.0919565,-0.23049,0.248157,-68.2499,43.6816
11,100000,0.0813783,-0.186882,0.203832,-66.4692,46.8919
12,79433,0.0737755,-0.151613,0.16861,-64.0523,48.5538
13,63096,0.0680634,-0.123032,0.140604,-61.0479,50.3772
14,50119,0.0637114,-0.0999514,0.11853,-57.4856,52.2201
15,39811,0.0602891,-0.0812091,0.101142,-53.41,54.0513
16,31623,0.0572467,-0.065604,0.0870693,-48.8917,55.7929
17,25119,0.0550779,-0.0531238,0.0765226,-43.9653,57.535
18,19953,0.053422,-0.0428919,0.06851,-38.7606,59.3464
19,15849,0.0521527,-0.0344594,0.0625089,-33.4544,61.1097
20,12589,0.0512497,-0.0275417,0.0581814,-28.2537,62.8325
21,10000,0.0504094,-0.0218007,0.0549216,-23.3871,65.967
22,7943.3,0.0500534,-0.0171314,0.052904,-18.8941,67.607
23,6309.6,0.0499005,-0.0133255,0.0516491,-14.9515,69.3261
24,5011.9,0.0496266,-0.0101729,0.0506585,-11.5845,71.0403
25,3981.1,0.0497203,-0.00765739,0.0503065,-8.7553,72.7562
26,3162.3,0.0499012,-0.00560514,0.050215,-6.40887,74.5134
27,2511.9,0.050111,-0.00391468,0.0502637,-4.46688,76.2301
28,1995.3,0.0503374,-0.0025003,0.0503995,-2.8436,77.9357
29,1584.9,0.0506341,-0.00132594,0.0506515,-1.50004,79.6002
30,1258.9,0.0509483,-0.000349289,0.0509495,-0.3928,81.3108
31,1000,0.0514219,0.000563057,0.051425,0.627349,83.0335
32,794.33,0.051857,0.00123224,0.0518717,1.36122,84.887
33,630.96,0.0520774,0.001785,0.052108,1.96309,86.6329
34,501.19,0.0525919,0.00227044,0.0526409,2.47198,88.369
35,398.11,0.0531148,0.00269585,0.0531831,2.90557,90.0699
36,316.23,0.0536245,0.00307483,0.0537126,3.28175,91.7996
37,251.19,0.0541884,0.00342584,0.0542966,3.61748,93.5765
38,199.53,0.054784,0.0037617,0.054913,3.928,95.2979
39,158.49,0.0554039,0.00409074,0.0555547,4.22276,97.0438
40,125.89,0.0560288,0.00442669,0.0562034,4.51741,98.8265
41,100,0.0567041,0.00478126,0.0569054,4.81975,100.615
42,79.433,0.0574007,0.00513845,0.0576302,5.11542,102.438
43,63.096,0.0581433,0.00552359,0.0584051,5.42679,104.301
44,50.119,0.0589603,0.00593593,0.0592583,5.74899,106.408
45,39.811,0.0598577,0.00637455,0.0601962,6.0788,108.368
46,31.623,0.0608474,0.00682806,0.0612293,6.40273,110.392
47,25.119,0.0619225,0.00727256,0.0623481,6.69848,112.488
48,19.953,0.0631638,0.0076731,0.0636281,6.92632,114.773
49,15.849,0.0645169,0.00801389,0.0650127,7.08066,117.119
50,12.589,0.0659081,0.00824679,0.0664221,7.1321,119.646
51,10,0.0673762,0.00835766,0.0678926,7.07111,122.331
52,7.9433,0.0688654,0.00833169,0.0693675,6.89841,125.026
53,6.3096,0.0703453,0.00817634,0.0708189,6.62983,127.842
54,5.0119,0.071714,0.00789584,0.0721474,6.28306,130.628
55,3.9811,0.0729727,0.00751649,0.0733588,5.88096,133.455
56,3.1623,0.0741423,0.00707704,0.0744793,5.45248,136.404
57,2.5119,0.0751879,0.00661945,0.0754788,5.03127,139.364
58,1.9953,0.0761143,0.00616899,0.0763639,4.63364,142.426
59,1.5849,0.0769207,0.00576276,0.0771363,4.28449,145.573
60,1.2589,0.0775733,0.00541295,0.0777619,3.99154,148.879
61,1,0.0781383,0.00514599,0.0783076,3.76791,152.531
62,0.79433,0.0786707,0.00498445,0.0788284,3.62532,156.216
63,0.63096,0.0791176,0.00493093,0.0792711,3.56629,160.111
64,0.50119,0.0795949,0.00500081,0.0797519,3.59507,164.365
65,0.39811,0.0800507,0.00522734,0.0802212,3.73613,169.04
66,0.31623,0.0804939,0.00558886,0.0806877,3.97179,174.231
67,0.25119,0.0810228,0.00603686,0.0812474,4.26113,180.06
68,0.19953,0.0815497,0.0067522,0.0818288,4.73321,186.67
69,0.15849,0.0820468,0.0076408,0.0824018,5.32046,194.367
70,0.12589,0.0827189,0.00869343,0.0831745,5.99953,203.305
71,0.1,0.0831951,0.00998351,0.083792,6.84284,213.897