Folder: ECSHackWeek_Dallas/tutorials/data/eis (part 9)

File: NMC_2_Pristine_5C.txt
Index,Frequency (Hz),Z' (Ω),-Z'' (Ω),Z (Ω),-Phase (°),Time (s)
1,1000000,1.25372,-1.4809,1.94033,-49.7489,14.4115
2,794330,0.888916,-1.34705,1.61391,-56.5792,16.2785
3,630960,0.638972,-1.16427,1.32809,-61.2413,18.0943
4,501190,0.456324,-0.986858,1.08725,-65.1841,21.505
5,398110,0.328555,-0.821878,0.885117,-68.2103,26.1408
6,316230,0.240707,-0.675741,0.717332,-70.3935,29.2868
7,251190,0.180202,-0.550854,0.57958,-71.8854,32.3748
8,199530,0.141562,-0.448276,0.470097,-72.4742,34.1368
9,158490,0.113961,-0.363395,0.380845,-72.5885,35.9541
10,125890,0.0948908,-0.294296,0.309215,-72.1289,37.6639
11,100000,0.0813733,-0.238386,0.251892,-71.1526,40.9251
12,79433,0.0716297,-0.193095,0.205952,-69.6474,42.5523
13,63096,0.0643431,-0.156353,0.169075,-67.6317,44.3799
14,50119,0.0588299,-0.126606,0.139607,-65.0772,46.2053
15,39811,0.0545767,-0.102374,0.116013,-61.9373,47.9426
16,31623,0.0513418,-0.0826573,0.0973047,-58.1539,49.7648
17,25119,0.048645,-0.0662496,0.0821909,-53.7114,51.5935
18,19953,0.0468637,-0.0531361,0.0708495,-48.5891,53.3414
19,15849,0.0455617,-0.0423934,0.062234,-42.937,55.073
20,12589,0.0447102,-0.0336683,0.0559692,-36.981,56.7916
21,10000,0.0440837,-0.0265246,0.0514483,-31.0348,59.9466
22,7943.3,0.0437666,-0.0206911,0.0484112,-25.3029,61.5598
23,6309.6,0.0436751,-0.0159549,0.046498,-20.0677,63.2962
24,5011.9,0.0434882,-0.012023,0.0451196,-15.4543,65.0379
25,3981.1,0.043649,-0.00887623,0.0445423,-11.4946,66.7704
26,3162.3,0.0439244,-0.00629699,0.0443735,-8.15831,68.4818
27,2511.9,0.0442089,-0.00415815,0.044404,-5.37326,70.3056
28,1995.3,0.0446045,-0.00237132,0.0446675,-3.04317,72.0458
29,1584.9,0.0450498,-0.000861627,0.0450581,-1.09571,73.7179
30,1258.9,0.0455787,0.000419032,0.0455806,0.526739,75.422
31,1000,0.046275,0.00158039,0.0463019,1.95602,77.1566
32,794.33,0.0469329,0.00252228,0.0470006,3.07625,78.9736
33,630.96,0.0474502,0.00332941,0.0475669,4.01366,80.6743
34,501.19,0.04822,0.00405815,0.0483905,4.81062,82.4598
35,398.11,0.0490861,0.00471342,0.0493118,5.48493,84.1609
36,316.23,0.0499937,0.00529963,0.0502739,6.05109,85.9081
37,251.19,0.0509782,0.00582642,0.05131,6.52018,87.6675
38,199.53,0.052018,0.00629681,0.0523978,6.9021,89.3985
39,158.49,0.0531246,0.0067154,0.0535473,7.20447,91.1556
40,125.89,0.0542964,0.00707975,0.0547561,7.42892,92.9658
41,100,0.0554971,0.00739153,0.0559872,7.58644,94.7459
42,79.433,0.056746,0.00763006,0.0572566,7.65806,96.562
43,63.096,0.057975,0.00780113,0.0584975,7.6637,98.4899
44,50.119,0.0592039,0.00790958,0.05973,7.60959,100.558
45,39.811,0.060452,0.0079703,0.0609752,7.51084,102.496
46,31.623,0.0616271,0.00799396,0.0621434,7.39086,104.535
47,25.119,0.062766,0.00800752,0.0632747,7.27037,106.597
48,19.953,0.0638069,0.00802962,0.0643102,7.17254,108.886
49,15.849,0.064819,0.00814006,0.0653281,7.15782,111.251
50,12.589,0.0657314,0.00835466,0.0662602,7.24363,113.718
51,10,0.0666475,0.00872894,0.0672167,7.46166,116.407
52,7.9433,0.0675058,0.00929539,0.0681428,7.84019,119.149
53,6.3096,0.0684065,0.0101013,0.0691483,8.39995,121.97
54,5.0119,0.0693899,0.011178,0.0702845,9.15113,124.857
55,3.9811,0.0705234,0.0125562,0.0716325,10.0953,127.684
56,3.1623,0.0718661,0.0142688,0.0732689,11.2299,130.635
57,2.5119,0.0734855,0.0163111,0.075274,12.5147,133.651
58,1.9953,0.0755599,0.0186904,0.0778372,13.8937,136.697
59,1.5849,0.0781232,0.0213354,0.0809842,15.2749,139.817
60,1.2589,0.0813172,0.0242043,0.084843,16.5758,143.119
61,1,0.0851877,0.0271012,0.0893948,17.6477,146.78
62,0.79433,0.0898894,0.0299454,0.0947461,18.4248,150.474
63,0.63096,0.0952253,0.0324319,0.100597,18.8078,154.368
64,0.50119,0.101106,0.0344801,0.106824,18.8309,158.598
65,0.39811,0.10805,0.0359729,0.113881,18.4141,163.329
66,0.31623,0.114663,0.0366999,0.120393,17.7481,168.518
67,0.25119,0.120984,0.0368596,0.126474,16.9442,174.318
68,0.19953,0.127511,0.0364407,0.132616,15.9491,180.979
69,0.15849,0.133336,0.0357125,0.138036,14.994,188.746
70,0.12589,0.138746,0.0349334,0.143076,14.1322,197.743
71,0.1,0.143797,0.0346454,0.147912,13.5462,208.377

File: NMC_2_Pristine_15C.txt
Index,Frequency (Hz),Z' (Ω),-Z'' (Ω),Z (Ω),-Phase (°),Time (s)
1,1000000,1.13695,-1.28594,1.71648,-48.5187,14.7687
2,794330,0.814117,-1.17366,1.42838,-55.2526,16.6241
3,630960,0.594303,-1.01822,1.17897,-59.7291,20.0785
4,501190,0.431652,-0.864933,0.966661,-63.4781,24.7978
5,398110,0.317655,-0.721646,0.788465,-66.2418,28.0185
6,316230,0.239354,-0.595865,0.642141,-68.1151,32.461
7,251190,0.184498,-0.486849,0.520635,-69.2451,35.5954
8,199530,0.149211,-0.397246,0.424344,-69.4131,37.3206
9,158490,0.123776,-0.323518,0.346388,-69.0635,39.1639
10,125890,0.105732,-0.262958,0.283419,-68.0957,40.8708
11,100000,0.0926349,-0.21381,0.233015,-66.5749,44.1866
12,79433,0.0830184,-0.173825,0.192632,-64.471,45.8472
13,63096,0.075706,-0.141094,0.160121,-61.7836,47.6684
14,50119,0.0701952,-0.114443,0.134256,-58.4767,49.5269
15,39811,0.0660134,-0.092626,0.113742,-54.523,51.2576
16,31623,0.0628612,-0.0747473,0.0976662,-49.9367,53.0915
17,25119,0.0602687,-0.0599231,0.0849888,-44.8353,54.92
18,19953,0.0586256,-0.0480805,0.0758201,-39.3562,56.7361
19,15849,0.0574623,-0.0384232,0.069125,-33.7694,58.476
20,12589,0.056636,-0.0305515,0.0643508,-28.3441,60.2975
21,10000,0.0560551,-0.0241512,0.0610365,-23.3086,63.4497
22,7943.3,0.0557202,-0.0189252,0.0588464,-18.7599,65.1331
23,6309.6,0.0556264,-0.0147015,0.0575364,-14.8042,66.8555
24,5011.9,0.0553539,-0.0112032,0.0564763,-11.4417,68.6686
25,3981.1,0.0554776,-0.00841333,0.056112,-8.62335,70.393
26,3162.3,0.0556892,-0.00613394,0.056026,-6.28556,72.1483
27,2511.9,0.0559059,-0.00424735,0.0560671,-4.3446,73.8772
28,1995.3,0.0561665,-0.00268552,0.0562307,-2.73742,75.6079
29,1584.9,0.0565136,-0.00139091,0.0565307,-1.40988,77.3188
30,1258.9,0.0568759,-0.000313584,0.0568767,-0.315896,79.0213
31,1000,0.0574301,0.00063214,0.0574336,0.630636,80.7517
32,794.33,0.0579195,0.00137465,0.0579359,1.35959,82.5794
33,630.96,0.0582147,0.00197865,0.0582483,1.94666,84.3434
34,501.19,0.0587775,0.00249852,0.0588305,2.43407,86.0751
35,398.11,0.0594108,0.0029334,0.0594832,2.82668,87.7862
36,316.23,0.0600708,0.00329164,0.060161,3.13644,89.5127
37,251.19,0.0607454,0.00358125,0.0608509,3.37398,91.2851
38,199.53,0.061425,0.0038098,0.0615431,3.54914,93.0266
39,158.49,0.062117,0.003983,0.0622446,3.66884,94.7871
40,125.89,0.0628141,0.0041083,0.0629483,3.74205,96.7712
41,100,0.0635389,0.00420374,0.0636778,3.78518,98.5487
42,79.433,0.0641902,0.00424542,0.0643304,3.78392,100.365
43,63.096,0.0648741,0.0042668,0.0650143,3.76295,102.222
44,50.119,0.0654376,0.0042709,0.0655768,3.73421,104.314
45,39.811,0.0660377,0.00428228,0.0661764,3.71021,106.27
46,31.623,0.0665993,0.00431701,0.066739,3.70876,108.305
47,25.119,0.0671046,0.00440027,0.0672488,3.7517,110.426
48,19.953,0.0676005,0.0045378,0.0677526,3.84032,112.732
49,15.849,0.0680787,0.00477156,0.0682457,4.00924,115.074
50,12.589,0.0685684,0.00511854,0.0687592,4.26913,117.553
51,10,0.0690762,0.00559036,0.0693021,4.62688,120.258
52,7.9433,0.0696447,0.00620314,0.0699204,5.08981,122.962
53,6.3096,0.0703579,0.00696273,0.0707016,5.65167,125.777
54,5.0119,0.0712115,0.00786901,0.0716449,6.30572,128.572
55,3.9811,0.072228,0.00888996,0.072773,7.01678,131.412
56,3.1623,0.0735313,0.0100191,0.0742107,7.75913,134.36
57,2.5119,0.075075,0.0111828,0.0759033,8.47217,137.296
58,1.9953,0.0769681,0.0123296,0.0779493,9.10092,140.358
59,1.5849,0.0791288,0.0133482,0.0802468,9.57507,143.495
60,1.2589,0.0815603,0.0141815,0.082784,9.86383,146.802
61,1,0.0841173,0.0147541,0.0854015,9.94846,150.525
62,0.79433,0.0868049,0.01506,0.0881016,9.84245,154.219
63,0.63096,0.0894307,0.0150841,0.0906939,9.57388,158.086
64,0.50119,0.0918919,0.0149573,0.0931013,9.24498,162.352
65,0.39811,0.0942592,0.0146199,0.0953862,8.81649,167.067
66,0.31623,0.0963745,0.0142847,0.0974274,8.43101,172.263
67,0.25119,0.0982962,0.0140657,0.0992975,8.14346,178.105
68,0.19953,0.100206,0.0137894,0.10115,7.83531,184.711
69,0.15849,0.101839,0.0137441,0.102763,7.68611,192.408
70,0.12589,0.103908,0.0139999,0.104847,7.67347,201.391
71,0.1,0.105606,0.0145566,0.106605,7.84809,212.004

File: NMC_2_Pristine_25C.txt
Index,Frequency (Hz),Z' (Ω),-Z'' (Ω),Z (Ω),-Phase (°),Time (s)
1,1000000,1.23705,-1.42028,1.88348,-48.9446,19.005
2,794330,0.882065,-1.29499,1.56686,-55.7399,20.8387
3,630960,0.639923,-1.12416,1.29353,-60.3494,22.67
4,501190,0.461234,-0.954981,1.06053,-64.2205,26.0841
5,398110,0.336059,-0.797826,0.865714,-67.1583,30.72
6,316230,0.249476,-0.657765,0.703487,-69.2294,33.8239
7,251190,0.189398,-0.53783,0.570205,-70.6002,36.9589
8,199530,0.150559,-0.439373,0.464453,-71.0851,38.6837
9,158490,0.122453,-0.35817,0.378524,-71.1251,40.5003
10,125890,0.102497,-0.291919,0.30939,-70.653,42.2456
11,100000,0.0877055,-0.237779,0.253439,-69.7534,45.5235
12,79433,0.0766929,-0.19396,0.208572,-68.4259,47.1526
13,63096,0.068146,-0.158071,0.172135,-66.6787,48.9952
14,50119,0.0615102,-0.128711,0.142654,-64.4572,50.8368
15,39811,0.0563734,-0.104588,0.118813,-61.675,52.6595
16,31623,0.052438,-0.0847055,0.0996232,-58.2399,54.411
17,25119,0.0492707,-0.068136,0.084084,-54.1285,56.1324
18,19953,0.0471204,-0.054823,0.0722903,-49.3209,57.9385
19,15849,0.0456218,-0.0439984,0.0633814,-43.9622,59.7624
20,12589,0.0445671,-0.0351688,0.0567721,-38.2777,61.513
21,10000,0.0436983,-0.0279328,0.0518631,-32.5875,64.6477
22,7943.3,0.043225,-0.0220653,0.0485312,-27.0432,66.2733
23,6309.6,0.0430112,-0.0173372,0.0463739,-21.9537,68.0241
24,5011.9,0.0426859,-0.0134273,0.0447479,-17.4615,69.8536
25,3981.1,0.0426944,-0.0103337,0.0439272,-13.6061,71.5759
26,3162.3,0.0428129,-0.00783292,0.0435235,-10.368,73.2839
27,2511.9,0.042968,-0.00580115,0.0433579,-7.68906,75.0196
28,1995.3,0.0431761,-0.00414313,0.0433744,-5.48125,76.7518
29,1584.9,0.0433682,-0.00278085,0.0434573,-3.66889,78.4324
30,1258.9,0.0436626,-0.00167853,0.0436948,-2.20155,80.1958
31,1000,0.0440854,-0.000712558,0.0440912,-0.925998,81.9128
32,794.33,0.0444197,-6.17712e-06,0.0444197,-0.00796771,83.7453
33,630.96,0.0446253,0.000551093,0.0446287,0.707529,85.4497
34,501.19,0.0450031,0.00100001,0.0450142,1.27296,87.2187
35,398.11,0.045418,0.0013521,0.0454382,1.7052,88.9192
36,316.23,0.0458303,0.00162732,0.0458592,2.03357,90.6408
37,251.19,0.0462306,0.00183472,0.046267,2.27266,92.418
38,199.53,0.0466382,0.00199466,0.0466808,2.44898,94.14
39,158.49,0.0470447,0.00212222,0.0470926,2.5829,95.8967
40,125.89,0.0474071,0.00221754,0.0474589,2.67815,97.6779
41,100,0.0477956,0.00229736,0.0478507,2.75189,99.4921
42,79.433,0.0481425,0.0023596,0.0482003,2.80598,101.304
43,63.096,0.0485028,0.00242015,0.0485631,2.85653,103.162
44,50.119,0.0488156,0.00248798,0.0488789,2.91766,105.265
45,39.811,0.0491223,0.00257225,0.0491896,2.99752,107.212
46,31.623,0.0494268,0.00269296,0.0495002,3.11861,109.246
47,25.119,0.0497317,0.00285754,0.0498137,3.28855,111.317
48,19.953,0.0500491,0.00306757,0.050143,3.50734,113.628
49,15.849,0.0504015,0.00335218,0.0505128,3.80511,115.975
50,12.589,0.0508129,0.00370877,0.0509481,4.17454,118.454
51,10,0.0512868,0.00413554,0.0514533,4.6101,121.139
52,7.9433,0.0518736,0.00461859,0.0520788,5.08793,123.849
53,6.3096,0.0525392,0.00513604,0.0527897,5.58328,126.686
54,5.0119,0.0533699,0.0056653,0.0536698,6.05934,129.53
55,3.9811,0.0543347,0.00616104,0.0546829,6.46917,132.405
56,3.1623,0.0554475,0.0065816,0.0558367,6.76932,135.346
57,2.5119,0.0566364,0.00688683,0.0570536,6.93297,138.391
58,1.9953,0.0578629,0.00705305,0.0582912,6.94963,141.462
59,1.5849,0.0591404,0.00707728,0.0595624,6.82409,144.696
60,1.2589,0.0603016,0.00698145,0.0607044,6.60404,147.996
61,1,0.0614383,0.00682326,0.061816,6.33723,151.669
62,0.79433,0.0624504,0.00662662,0.062801,6.057,155.337
63,0.63096,0.0633197,0.00644427,0.0636468,5.81119,159.213
64,0.50119,0.0641176,0.00629783,0.0644262,5.60977,163.464
65,0.39811,0.0648815,0.0062804,0.0651847,5.52889,168.139
66,0.31623,0.0655817,0.00633528,0.065887,5.51773,173.341
67,0.25119,0.0662903,0.00643269,0.0666017,5.54252,179.186
68,0.19953,0.0669525,0.00672528,0.0672895,5.73603,185.789
69,0.15849,0.0676669,0.0071238,0.0680408,6.00982,193.484
70,0.12589,0.068415,0.00757534,0.0688331,6.31841,202.44
71,0.1,0.0691113,0.0081368,0.0695886,6.7148,213.057

File: NMC_2_Pristine_35C.txt
Index,Frequency (Hz),Z' (Ω),-Z'' (Ω),Z (Ω),-Phase (°),Time (s)
1,1000000,1.28162,-1.4729,1.95243,-48.9724,14.3707
2,794330,0.912784,-1.34221,1.62318,-55.782,17.7341
3,630960,0.661414,-1.16692,1.34133,-60.4554,21.0454
4,501190,0.474752,-0.991213,1.09904,-64.4074,24.3701
5,398110,0.344445,-0.827891,0.896686,-67.4102,28.9749
6,316230,0.254263,-0.682023,0.727877,-69.5542,32.0913
7,251190,0.192038,-0.557502,0.58965,-70.9931,35.2321
8,199530,0.151808,-0.454367,0.479056,-71.5251,36.952
9,158490,0.122961,-0.369316,0.389247,-71.5852,38.7671
10,125890,0.102837,-0.300186,0.317312,-71.0897,40.4884
11,100000,0.0882696,-0.243945,0.259423,-70.1077,43.8425
12,79433,0.0775633,-0.198341,0.212968,-68.6415,45.5895
13,63096,0.0694032,-0.161236,0.175539,-66.7108,47.4708
14,50119,0.0631223,-0.131063,0.145472,-64.2838,49.2938
15,39811,0.0582265,-0.106321,0.121221,-61.2928,51.1111
16,31623,0.054473,-0.0860557,0.101847,-57.6663,52.8433
17,25119,0.0514268,-0.0692242,0.0862364,-53.3913,54.59
18,19953,0.0493701,-0.055726,0.0744499,-48.4609,56.4019
19,15849,0.0478892,-0.044723,0.065525,-43.0419,58.2193
20,12589,0.0468411,-0.035778,0.058942,-37.3732,59.9819
21,10000,0.0459928,-0.0284855,0.0540995,-31.7719,63.1034
22,7943.3,0.0455502,-0.0225986,0.0508479,-26.3872,64.7235
23,6309.6,0.0453066,-0.0178517,0.0486968,-21.5054,66.5059
24,5011.9,0.0449331,-0.0139416,0.0470462,-17.2378,68.232
25,3981.1,0.0449341,-0.0108755,0.0462315,-13.6058,69.9474
26,3162.3,0.0449904,-0.00840514,0.0457688,-10.5821,71.6685
27,2511.9,0.0450674,-0.00641302,0.0455214,-8.09873,73.4058
28,1995.3,0.0451742,-0.00480048,0.0454285,-6.06583,75.1165
29,1584.9,0.0453179,-0.00350008,0.0454529,-4.4164,76.7935
30,1258.9,0.0454872,-0.00245947,0.0455536,-3.09494,78.5292
31,1000,0.0457945,-0.00156096,0.0458211,-1.95224,80.2388
32,794.33,0.0460086,-0.000915484,0.0460177,-1.13993,82.0524
33,630.96,0.0460334,-0.000409828,0.0460352,-0.510083,83.7652
34,501.19,0.0462654,-6.66552e-06,0.0462654,-0.00825469,85.5497
35,398.11,0.0464956,0.000310728,0.0464966,0.3829,87.3529
36,316.23,0.0467237,0.000563318,0.0467271,0.690747,89.0698
37,251.19,0.0469564,0.000764289,0.0469626,0.932495,90.834
38,199.53,0.0471836,0.00093113,0.0471928,1.13054,92.5673
39,158.49,0.0473903,0.00107335,0.0474025,1.29748,94.3184
40,125.89,0.0476416,0.00119729,0.0476566,1.4396,96.1146
41,100,0.047842,0.00130854,0.0478599,1.56673,97.9314
42,79.433,0.0480536,0.00140963,0.0480742,1.68027,99.7387
43,63.096,0.0482601,0.00150823,0.0482836,1.79003,101.65
44,50.119,0.0484757,0.001613,0.0485025,1.90578,103.719
45,39.811,0.0487009,0.00172862,0.0487316,2.03283,105.667
46,31.623,0.0489243,0.00186425,0.0489598,2.18219,107.685
47,25.119,0.049166,0.00201685,0.0492074,2.34903,109.749
48,19.953,0.0494607,0.00218253,0.0495089,2.52663,112.044
49,15.849,0.0498011,0.00237263,0.0498576,2.72763,114.385
50,12.589,0.0501797,0.00256602,0.0502453,2.92736,116.856
51,10,0.0505946,0.00274943,0.0506692,3.11053,119.583
52,7.9433,0.0510587,0.00290794,0.0511415,3.25963,122.308
53,6.3096,0.0515982,0.00302952,0.0516871,3.36019,125.131
54,5.0119,0.0521484,0.00309543,0.0522402,3.39698,127.916
55,3.9811,0.0526603,0.00310674,0.0527518,3.3763,130.778
56,3.1623,0.0531665,0.00307449,0.0532553,3.30959,133.717
57,2.5119,0.0536623,0.0030147,0.0537469,3.21544,136.743
58,1.9953,0.0540771,0.00294468,0.0541572,3.11687,139.781
59,1.5849,0.0544789,0.00287706,0.0545548,3.02302,142.894
60,1.2589,0.0548356,0.00283834,0.054909,2.96304,146.214
61,1,0.0551618,0.00282997,0.0552344,2.93688,149.923
62,0.79433,0.055492,0.00287712,0.0555666,2.96798,153.621
63,0.63096,0.0557938,0.00296982,0.0558728,3.04689,157.499
64,0.50119,0.0560705,0.00313421,0.0561581,3.19936,161.737
65,0.39811,0.056437,0.0033261,0.056535,3.37281,166.408
66,0.31623,0.0567761,0.00360187,0.0568902,3.62998,171.574
67,0.25119,0.0571459,0.00396419,0.0572832,3.96823,177.411
68,0.19953,0.0576126,0.00433314,0.0577753,4.30121,184.014
69,0.15849,0.0580859,0.00480265,0.0582841,4.72658,191.676
70,0.12589,0.0585564,0.00536732,0.0588018,5.23714,200.703
71,0.1,0.0591875,0.00607319,0.0594983,5.85857,211.273

File: NMC_2_Pristine_45C.txt
Index,Frequency (Hz),Z' (Ω),-Z'' (Ω),Z (Ω),-Phase (°),Time (s)
1,1000000,1.36388,-1.58247,2.08911,-49.2431,19.0476
2,794330,0.968317,-1.4403,1.73554,-56.087,20.8808
3,630960,0.699164,-1.25339,1.4352,-60.8464,24.3139
4,501190,0.499118,-1.06548,1.17659,-64.8994,27.6298
5,398110,0.358626,-0.887993,0.957677,-68.0081,30.8594
6,316230,0.262317,-0.731542,0.777151,-70.2731,33.9662
7,251190,0.195611,-0.596533,0.627786,-71.845,37.0958
8,199530,0.152993,-0.485859,0.509378,-72.5213,38.8208
9,158490,0.12257,-0.394174,0.412792,-72.7267,40.6329
10,125890,0.101457,-0.319508,0.335229,-72.3832,42.3383
11,100000,0.0864727,-0.258896,0.272956,-71.5304,45.6514
12,79433,0.0756896,-0.209789,0.223025,-70.1611,47.2732
13,63096,0.0676392,-0.169854,0.182826,-68.2866,49.1199
14,50119,0.0616197,-0.137623,0.150788,-65.8799,50.9511
15,39811,0.0570365,-0.111399,0.125152,-62.8875,52.7621
16,31623,0.0535289,-0.089979,0.104697,-59.2514,54.5674
17,25119,0.050659,-0.0722837,0.0882682,-54.9758,56.3359
18,19953,0.048713,-0.0581673,0.0758709,-50.055,58.1637
19,15849,0.0473125,-0.0467126,0.0664872,-44.6345,59.8908
20,12589,0.0463106,-0.0374257,0.0595429,-38.9433,61.6075
21,10000,0.045424,-0.0298482,0.0543531,-33.309,64.7252
22,7943.3,0.0449597,-0.023737,0.0508411,-27.8323,66.3548
23,6309.6,0.0447124,-0.0188329,0.0485168,-22.8409,68.0663
24,5011.9,0.0443335,-0.0148034,0.0467397,-18.4647,69.8066
25,3981.1,0.0442698,-0.0116394,0.0457743,-14.7308,71.5181
26,3162.3,0.0442711,-0.00910287,0.0451972,-11.619,73.2333
27,2511.9,0.0443047,-0.0070672,0.0448648,-9.0631,75.0594
28,1995.3,0.0443636,-0.00542189,0.0446937,-6.96783,76.7815
29,1584.9,0.0444402,-0.00409547,0.0446285,-5.26532,78.4466
30,1258.9,0.0445362,-0.00303025,0.0446391,-3.89241,80.1384
31,1000,0.0447558,-0.00210526,0.0448053,-2.69315,81.8936
32,794.33,0.0449005,-0.00144343,0.0449237,-1.84127,83.7111
33,630.96,0.0448665,-0.000920363,0.044876,-1.17516,85.4082
34,501.19,0.0450137,-0.000503423,0.0450166,-0.640755,87.1361
35,398.11,0.0451948,-0.000172685,0.0451951,-0.218921,88.8663
36,316.23,0.045333,9.39358e-05,0.0453331,0.118724,90.5863
37,251.19,0.0455142,0.000306571,0.0455152,0.385922,92.3228
38,199.53,0.0456561,0.000486413,0.0456587,0.610397,94.0688
39,158.49,0.0458268,0.000641631,0.0458313,0.802158,95.8252
40,125.89,0.0459902,0.000775737,0.0459968,0.966341,97.6233
41,100,0.046159,0.000897485,0.0461677,1.11388,99.4145
42,79.433,0.0463183,0.00100271,0.0463292,1.24016,101.25
43,63.096,0.0465125,0.00110323,0.0465255,1.35874,103.154
44,50.119,0.0466585,0.00119842,0.0466738,1.47132,105.231
45,39.811,0.0468519,0.00129634,0.0468698,1.58491,107.167
46,31.623,0.0470471,0.00139314,0.0470677,1.69613,109.182
47,25.119,0.0473026,0.00149038,0.0473261,1.80464,111.262
48,19.953,0.0475421,0.00156855,0.0475679,1.88967,113.558
49,15.849,0.0478138,0.00163617,0.0478418,1.95988,115.906
50,12.589,0.0480746,0.00168476,0.0481041,2.0071,118.367
51,10,0.0483934,0.00170457,0.0484234,2.01731,121.075
52,7.9433,0.0486905,0.0016996,0.0487202,1.99917,123.765
53,6.3096,0.0489515,0.00167392,0.0489801,1.95849,126.57
54,5.0119,0.0491803,0.00163275,0.0492074,1.90148,129.411
55,3.9811,0.0494355,0.00159089,0.0494611,1.84321,132.238
56,3.1623,0.049628,0.00155445,0.0496523,1.79403,135.081
57,2.5119,0.0498105,0.00154083,0.0498343,1.77182,138.012
58,1.9953,0.0500018,0.00154417,0.0500257,1.76886,141.092
59,1.5849,0.0501603,0.00157224,0.050185,1.79531,144.222
60,1.2589,0.0503398,0.00163241,0.0503663,1.85733,147.531
61,1,0.0504462,0.00171864,0.0504755,1.95124,151.194
62,0.79433,0.0506376,0.00185389,0.0506715,2.09671,154.852
63,0.63096,0.0508258,0.00202311,0.050866,2.27944,158.753
64,0.50119,0.051067,0.00224643,0.0511164,2.51881,162.996
65,0.39811,0.051296,0.00248489,0.0513562,2.77336,167.592
66,0.31623,0.0515667,0.00278106,0.0516417,3.08704,172.81
67,0.25119,0.0518692,0.00314496,0.0519645,3.46974,178.694
68,0.19953,0.0522605,0.00349053,0.0523769,3.82117,185.341
69,0.15849,0.0526303,0.0039125,0.0527755,4.25152,193.022
70,0.12589,0.0530004,0.00440965,0.0531835,4.75607,201.95
71,0.1,0.053505,0.00500635,0.0537387,5.34548,212.52

File: NMC_3_Pristine_5C.txt
Index,Frequency (Hz),Z' (Ω),-Z'' (Ω),Z (Ω),-Phase (°),Time (s)
1,1000000,1.25052,-1.46893,1.92913,-49.5918,19.0304
2,794330,0.888536,-1.33635,1.60478,-56.3801,20.8667
3,630960,0.640681,-1.15559,1.32131,-60.9952,22.6753
4,501190,0.458947,-0.978975,1.08121,-64.8826,26.1623
5,398110,0.332253,-0.815658,0.880733,-67.8368,30.7832
6,316230,0.245175,-0.671228,0.714603,-69.9346,33.8997
7,251190,0.184929,-0.547273,0.577673,-71.3294,37.0251
8,199530,0.146399,-0.445628,0.46906,-71.8135,38.753
9,158490,0.118828,-0.361892,0.380902,-71.8223,40.594
10,125890,0.0996343,-0.293729,0.310167,-71.2628,42.3104
11,100000,0.0858113,-0.238352,0.253328,-70.2001,45.5526
12,79433,0.0756537,-0.193313,0.207589,-68.6269,47.1819
13,63096,0.0680335,-0.156888,0.171004,-66.5564,49.0052
14,50119,0.0622115,-0.127275,0.141666,-63.9509,50.8222
15,39811,0.0576856,-0.103009,0.118061,-60.7508,52.6422
16,31623,0.0542651,-0.0832078,0.099339,-56.8891,54.3681
17,25119,0.0514515,-0.0667434,0.084273,-52.3719,56.1261
18,19953,0.0495762,-0.0535485,0.0729743,-47.206,57.9432
19,15849,0.0482526,-0.0427868,0.0644905,-41.5642,59.6591
20,12589,0.0473543,-0.034031,0.0583141,-35.7027,61.3908
21,10000,0.0466085,-0.0268567,0.0537925,-29.9514,64.5138
22,7943.3,0.0462757,-0.0210191,0.0508256,-24.4283,66.1429
23,6309.6,0.046178,-0.016279,0.0489634,-19.4189,67.8668
24,5011.9,0.045935,-0.0123325,0.0475617,-15.0282,69.6119
25,3981.1,0.0460623,-0.00917877,0.046968,-11.2696,71.3179
26,3162.3,0.0463201,-0.00659811,0.0467876,-8.10702,73.0238
27,2511.9,0.0465808,-0.00445704,0.0467935,-5.46566,74.7855
28,1995.3,0.0469319,-0.00266496,0.0470075,-3.24997,76.4957
29,1584.9,0.0473252,-0.00115487,0.0473393,-1.3979,78.1706
30,1258.9,0.0478149,0.000126292,0.0478151,0.151333,79.8665
31,1000,0.0484469,0.0013058,0.0484645,1.54393,81.6215
32,794.33,0.0490576,0.00224373,0.0491088,2.61869,83.4393
33,630.96,0.0495061,0.00304567,0.0495997,3.52046,85.155
34,501.19,0.0502361,0.00377116,0.0503775,4.29306,86.887
35,398.11,0.05106,0.00442691,0.0512515,4.95516,88.5906
36,316.23,0.0519327,0.00501614,0.0521744,5.51704,90.3095
37,251.19,0.0528568,0.00554674,0.053147,5.99064,92.0702
38,199.53,0.0538713,0.00602709,0.0542074,6.38367,93.8001
39,158.49,0.0549292,0.00645725,0.0553075,6.70468,95.5502
40,125.89,0.0560403,0.00683786,0.0564559,6.95667,97.3488
41,100,0.0571858,0.007173,0.0576339,7.14945,99.1529
42,79.433,0.0583686,0.0074354,0.0588403,7.25964,100.989
43,63.096,0.059605,0.00764645,0.0600934,7.31028,102.967
44,50.119,0.0608045,0.0077968,0.0613023,7.30702,105.133
45,39.811,0.0620407,0.00789637,0.0625412,7.25345,107.129
46,31.623,0.0632428,0.00795522,0.0637412,7.1695,109.178
47,25.119,0.064371,0.00799171,0.0648652,7.07711,111.261
48,19.953,0.0654506,0.00803299,0.0659417,6.99712,113.545
49,15.849,0.0664544,0.00813823,0.0669509,6.98187,115.9
50,12.589,0.0674304,0.00834973,0.0679454,7.05886,118.439
51,10,0.0682925,0.0087055,0.0688451,7.26453,121.163
52,7.9433,0.0691594,0.00925267,0.0697756,7.62021,123.993
53,6.3096,0.0700895,0.0100403,0.070805,8.15218,126.843
54,5.0119,0.0710343,0.0110873,0.0718944,8.87139,129.656
55,3.9811,0.0721224,0.012447,0.0731886,9.79178,132.507
56,3.1623,0.0734305,0.014138,0.0747792,10.8981,135.436
57,2.5119,0.0749962,0.0161721,0.0767201,12.1689,138.438
58,1.9953,0.0770166,0.0185613,0.0792217,13.5501,141.543
59,1.5849,0.079521,0.0212427,0.0823094,14.9564,144.675
60,1.2589,0.0826292,0.0241489,0.0860858,16.2913,148.013
61,1,0.0864576,0.0271751,0.0906278,17.4488,151.738
62,0.79433,0.0910172,0.0300678,0.0958551,18.2811,155.387
63,0.63096,0.0963774,0.0327388,0.101786,18.7623,159.291
64,0.50119,0.102872,0.0350564,0.108681,18.8179,163.504
65,0.39811,0.109387,0.0367734,0.115403,18.5814,168.194
66,0.31623,0.116078,0.0376883,0.122043,17.9876,173.342
67,0.25119,0.122914,0.0377788,0.128589,17.0853,179.183
68,0.19953,0.129227,0.0374148,0.134534,16.1472,185.818
69,0.15849,0.135409,0.0369729,0.140366,15.2722,193.523
70,0.12589,0.141045,0.0359375,0.145551,14.2945,202.487
71,0.1,0.146251,0.0350578,0.150395,13.48,213.122