Folder: ECSHackWeek_Dallas/tutorials/data/eis (part 6)

File: LFP_3_Pristine_45C.txt
Index,Frequency (Hz),Z' (Ω),-Z'' (Ω),Z (Ω),-Phase (°),Time (s)
1,1000000,1.22611,-1.49493,1.93344,-50.642,14.3634
2,794330,0.865635,-1.34758,1.60166,-57.2848,16.2008
3,630960,0.622019,-1.16384,1.31964,-61.8776,19.6183
4,501190,0.442919,-0.982386,1.07762,-65.7313,22.9462
5,398110,0.318913,-0.815693,0.87582,-68.6459,27.5553
6,316230,0.234246,-0.669147,0.708963,-70.7065,30.6792
7,251190,0.17613,-0.544326,0.572113,-72.0697,33.7733
8,199530,0.139154,-0.44172,0.463121,-72.5141,35.496
9,158490,0.113031,-0.357544,0.374985,-72.4566,37.3591
10,125890,0.0950825,-0.288727,0.30398,-71.7725,39.0682
11,100000,0.0826109,-0.23316,0.247362,-70.4902,42.3061
12,79433,0.0738413,-0.188198,0.202166,-68.5769,44.0305
13,63096,0.0675,-0.15202,0.166332,-66.0578,45.8228
14,50119,0.0627907,-0.122881,0.137995,-62.9336,47.6352
15,39811,0.059163,-0.0993798,0.115657,-59.2337,49.4847
16,31623,0.056351,-0.0803861,0.09817,-54.9694,51.2062
17,25119,0.0538486,-0.0646646,0.0841498,-50.2146,53.0284
18,19953,0.0521463,-0.0521659,0.0737598,-45.0108,54.7649
19,15849,0.0508252,-0.0419807,0.0659211,-39.5561,56.4925
20,12589,0.0498754,-0.0336882,0.0601868,-34.037,58.2144
21,10000,0.0489685,-0.0268881,0.0558649,-28.7708,61.3686
22,7943.3,0.0485338,-0.0214035,0.0530438,-23.7975,63.0192
23,6309.6,0.0482891,-0.0169739,0.0511855,-19.3668,64.7354
24,5011.9,0.0478646,-0.0133183,0.049683,-15.5492,66.5474
25,3981.1,0.0477961,-0.0104467,0.0489244,-12.3291,68.2673
26,3162.3,0.0478294,-0.00814466,0.0485179,-9.66395,69.9751
27,2511.9,0.0478692,-0.00628389,0.0482799,-7.47857,71.7068
28,1995.3,0.0479136,-0.00475534,0.048149,-5.66794,73.4088
29,1584.9,0.0479508,-0.00350672,0.0480788,-4.18269,75.1029
30,1258.9,0.0480693,-0.00249697,0.0481341,-2.97357,76.8243
31,1000,0.0482675,-0.00157242,0.0482931,-1.86587,78.5416
32,794.33,0.0484511,-0.000914245,0.0484597,-1.08101,80.3837
33,630.96,0.0484131,-0.000372679,0.0484146,-0.441048,82.0977
34,501.19,0.0485964,8.39e-05,0.0485964,0.0989192,83.8235
35,398.11,0.0488383,0.000469627,0.0488406,0.550936,85.52
36,316.23,0.0490835,0.000795593,0.0490899,0.928625,87.262
37,251.19,0.0493905,0.00106669,0.049402,1.23723,89.0151
38,199.53,0.0496775,0.00128688,0.0496942,1.4839,90.7438
39,158.49,0.0500086,0.00146105,0.05003,1.67348,92.4893
40,125.89,0.050344,0.00158855,0.050369,1.80731,94.3042
41,100,0.0507224,0.00167743,0.0507501,1.89413,96.0805
42,79.433,0.0510539,0.00170483,0.0510824,1.91255,97.9024
43,63.096,0.051351,0.00169106,0.0513789,1.88614,99.7706
44,50.119,0.0516618,0.00164543,0.051688,1.82425,101.847
45,39.811,0.0519592,0.00157355,0.051983,1.73463,103.791
46,31.623,0.0521771,0.00148149,0.0521982,1.62639,105.836
47,25.119,0.052398,0.00138064,0.0524162,1.50934,107.919
48,19.953,0.0526139,0.0012678,0.0526292,1.38035,110.222
49,15.849,0.0528061,0.00117053,0.0528191,1.26984,112.575
50,12.589,0.0529327,0.0010768,0.0529437,1.16539,115.04
51,10,0.0530594,0.000994473,0.0530687,1.07375,117.736
52,7.9433,0.0531257,0.000929475,0.0531338,1.00233,120.476
53,6.3096,0.0532414,0.000879335,0.0532487,0.946211,123.291
54,5.0119,0.0533155,0.000845798,0.0533222,0.908865,126.18
55,3.9811,0.0533961,0.000827236,0.0534025,0.887581,129.002
56,3.1623,0.053458,0.000825099,0.0534644,0.884263,131.957
57,2.5119,0.0535186,0.000842332,0.0535252,0.901708,134.944
58,1.9953,0.0535801,0.000880682,0.0535874,0.941671,138.006
59,1.5849,0.0536397,0.000939439,0.0536479,1.00337,141.138
60,1.2589,0.0536977,0.0010213,0.0537074,1.0896,144.422
61,1,0.0537588,0.00112417,0.0537706,1.19796,148.067
62,0.79433,0.0538369,0.00127976,0.0538521,1.36172,151.708
63,0.63096,0.0539281,0.00146097,0.0539479,1.55182,155.588
64,0.50119,0.054007,0.00169247,0.0540335,1.79495,159.856
65,0.39811,0.0541438,0.0019674,0.0541795,2.08101,164.52
66,0.31623,0.054261,0.00231574,0.0543104,2.44378,169.71
67,0.25119,0.0543811,0.0027232,0.0544493,2.86676,175.555
68,0.19953,0.0545887,0.003244,0.054685,3.40087,182.224
69,0.15849,0.0547628,0.00385812,0.0548986,4.02991,189.97
70,0.12589,0.0549874,0.00457156,0.0551772,4.75254,198.906
71,0.1,0.0551567,0.00555947,0.0554361,5.75564,209.564

File: NCA_1_Pristine_5C.txt
Index,Frequency (Hz),Z' (Ω),-Z'' (Ω),Z (Ω),-Phase (°),Time (s)
1,1000000,1.37827,-1.41398,1.97458,-45.7327,34.0833
2,794330,1.01612,-1.31989,1.66572,-52.4088,35.9075
3,630960,0.755839,-1.16629,1.38979,-57.0539,39.3091
4,501190,0.557195,-1.00412,1.14836,-60.9738,42.6271
5,398110,0.415272,-0.848379,0.944562,-63.9188,47.2328
6,316230,0.31509,-0.706481,0.773561,-65.9631,50.3406
7,251190,0.244068,-0.582711,0.63176,-67.2737,53.4534
8,199530,0.196951,-0.47936,0.518243,-67.664,56.6793
9,158490,0.162199,-0.392885,0.42505,-67.5671,58.3855
10,125890,0.137129,-0.321588,0.349604,-66.906,60.1021
11,100000,0.118611,-0.262794,0.288321,-65.7081,63.3582
12,79433,0.104936,-0.214532,0.238821,-63.9351,64.9921
13,63096,0.0946927,-0.175001,0.198978,-61.5823,66.8072
14,50119,0.0869391,-0.142567,0.166984,-58.6247,68.6853
15,39811,0.0810139,-0.115958,0.141455,-55.06,70.4967
16,31623,0.0764844,-0.0941965,0.121338,-50.9246,72.3186
17,25119,0.073006,-0.0764088,0.10568,-46.3046,74.0671
18,19953,0.069976,-0.0615829,0.0932153,-41.3496,75.7894
19,15849,0.0679429,-0.0496766,0.0841665,-36.1725,77.5258
20,12589,0.0663456,-0.0398251,0.0773807,-30.975,79.2612
21,10000,0.0653268,-0.0317624,0.0726391,-25.9294,82.4068
22,7943.3,0.0645384,-0.0250398,0.0692257,-21.2054,84.041
23,6309.6,0.0641246,-0.0195202,0.0670299,-16.9308,85.7758
24,5011.9,0.063615,-0.014895,0.0653355,-13.178,87.6347
25,3981.1,0.0636115,-0.0111647,0.0645839,-9.95483,89.3425
26,3162.3,0.0637458,-0.00808106,0.064256,-7.22486,91.0485
27,2511.9,0.0639956,-0.0055054,0.0642319,-4.91692,92.7608
28,1995.3,0.0642821,-0.0033488,0.0643693,-2.98215,94.5107
29,1584.9,0.064753,-0.00153758,0.0647712,-1.36025,96.1866
30,1258.9,0.0652261,1.12897e-05,0.0652261,0.00991711,97.8776
31,1000,0.0660265,0.00140825,0.0660415,1.22185,99.6139
32,794.33,0.0666934,0.00257334,0.066743,2.20964,101.439
33,630.96,0.0671653,0.00359316,0.0672614,3.06225,103.14
34,501.19,0.0679537,0.00454427,0.0681055,3.82584,104.865
35,398.11,0.0688824,0.0054324,0.0690962,4.50929,106.638
36,316.23,0.0698864,0.0062695,0.0701671,5.12628,108.353
37,251.19,0.0709803,0.00707578,0.0713321,5.69281,110.103
38,199.53,0.0721853,0.00785546,0.0726115,6.21068,111.812
39,158.49,0.0734659,0.00861086,0.0739688,6.68508,113.583
40,125.89,0.0748301,0.00934515,0.0754114,7.11852,115.371
41,100,0.0763294,0.0100703,0.0769909,7.51572,117.152
42,79.433,0.0779183,0.0107568,0.0786573,7.86013,118.998
43,63.096,0.0795953,0.0114258,0.0804112,8.16892,120.875
44,50.119,0.081352,0.0120775,0.0822437,8.44445,122.939
45,39.811,0.083187,0.0127129,0.0841528,8.6889,124.897
46,31.623,0.0851619,0.0133411,0.0862005,8.90333,126.938
47,25.119,0.0871381,0.013944,0.0882467,9.09151,129.007
48,19.953,0.0891972,0.01452,0.0903712,9.2458,131.281
49,15.849,0.091398,0.0151205,0.0926403,9.39369,133.636
50,12.589,0.0935342,0.015715,0.0948452,9.53738,136.099
51,10,0.0957509,0.0163592,0.0971383,9.69547,138.788
52,7.9433,0.0980247,0.0170756,0.0995009,9.88157,141.507
53,6.3096,0.100268,0.0178679,0.101848,10.1041,144.311
54,5.0119,0.103059,0.0188983,0.104777,10.3911,147.15
55,3.9811,0.105324,0.0199794,0.107202,10.7411,149.969
56,3.1623,0.107659,0.021296,0.109745,11.1892,152.916
57,2.5119,0.109948,0.0229241,0.112313,11.7774,155.908
58,1.9953,0.112191,0.0249873,0.11494,12.556,159.024
59,1.5849,0.114505,0.027621,0.117789,13.5619,162.212
60,1.2589,0.116773,0.0309732,0.120811,14.8553,165.453
61,1,0.119136,0.0352901,0.124253,16.5002,169.144
62,0.79433,0.122185,0.0406164,0.128759,18.3876,172.791
63,0.63096,0.125181,0.0472757,0.133811,20.6895,176.681
64,0.50119,0.128852,0.0559926,0.140492,23.4874,180.968
65,0.39811,0.13341,0.0658884,0.148794,26.2838,185.664
66,0.31623,0.139696,0.0782569,0.160122,29.2574,190.869
67,0.25119,0.14683,0.0931053,0.173861,32.3789,196.741
68,0.19953,0.157676,0.109651,0.192055,34.8156,203.431
69,0.15849,0.170916,0.128961,0.214111,37.0355,211.103
70,0.12589,0.186712,0.150774,0.239988,38.9215,220.039
71,0.1,0.207783,0.176453,0.272598,40.3385,230.65

File: NCA_1_Pristine_15C.txt
Index,Frequency (Hz),Z' (Ω),-Z'' (Ω),Z (Ω),-Phase (°),Time (s)
1,1000000,1.23009,-1.19865,1.71752,-44.2584,18.9728
2,794330,0.917842,-1.12897,1.45499,-50.8891,20.8441
3,630960,0.690322,-1.0049,1.21917,-55.5127,24.2542
4,501190,0.514745,-0.871708,1.01234,-59.4381,27.5839
5,398110,0.387227,-0.739989,0.835182,-62.3775,32.1641
6,316230,0.296612,-0.619018,0.686412,-64.3979,36.5801
7,251190,0.231702,-0.512434,0.562383,-65.6695,39.6847
8,199530,0.188356,-0.422652,0.462723,-65.9798,41.4361
9,158490,0.156077,-0.347281,0.380742,-65.7996,43.2567
10,125890,0.132692,-0.28471,0.314113,-65.0117,44.979
11,100000,0.115416,-0.232856,0.25989,-63.6346,48.2638
12,79433,0.102769,-0.190078,0.216081,-61.6013,50.0053
13,63096,0.0934314,-0.154862,0.180864,-58.8966,51.8431
14,50119,0.0864535,-0.125846,0.15268,-55.5117,53.7037
15,39811,0.0813134,-0.102173,0.13058,-51.4858,55.5296
16,31623,0.0774873,-0.0828917,0.113469,-46.93,57.2706
17,25119,0.0745388,-0.0671408,0.100319,-42.0109,59.0415
18,19953,0.0719262,-0.054093,0.0899969,-36.9455,60.7744
19,15849,0.0701531,-0.0436139,0.0826053,-31.869,62.5851
20,12589,0.0688149,-0.035009,0.0772083,-26.9643,64.3166
21,10000,0.0679197,-0.0279022,0.0734276,-22.3334,67.5732
22,7943.3,0.0672246,-0.0220236,0.0707403,-18.1394,69.2275
23,6309.6,0.0668431,-0.0171886,0.0690177,-14.4211,70.96
24,5011.9,0.0663565,-0.0131477,0.0676465,-11.2073,72.8059
25,3981.1,0.066341,-0.0098853,0.0670735,-8.47513,74.5421
26,3162.3,0.066456,-0.00719277,0.0668441,-6.17728,76.2492
27,2511.9,0.0666585,-0.00495341,0.0668423,-4.24985,78.0902
28,1995.3,0.0669494,-0.00309526,0.0670209,-2.64706,79.8079
29,1584.9,0.0673166,-0.00154691,0.0673344,-1.31641,81.4996
30,1258.9,0.0677532,-0.000246473,0.0677537,-0.20843,83.2118
31,1000,0.0684624,0.000900945,0.0684684,0.753952,84.9466
32,794.33,0.0690458,0.00183999,0.0690703,1.5265,86.7535
33,630.96,0.0693461,0.00263591,0.0693962,2.17682,88.4816
34,501.19,0.0700575,0.00335645,0.0701379,2.74294,90.2211
35,398.11,0.0707915,0.00399452,0.0709041,3.22958,91.9674
36,316.23,0.0715778,0.00457116,0.0717236,3.65411,93.71
37,251.19,0.0724272,0.00509203,0.0726059,4.02159,95.4623
38,199.53,0.07335,0.00556622,0.0735609,4.33962,97.2187
39,158.49,0.0743253,0.00599743,0.0745669,4.61329,98.9736
40,125.89,0.0753642,0.00639132,0.0756347,4.84741,100.77
41,100,0.0763661,0.00674918,0.0766638,5.05064,102.544
42,79.433,0.0774271,0.00705978,0.0777483,5.20981,104.395
43,63.096,0.0785697,0.00735351,0.078913,5.34686,106.252
44,50.119,0.0796558,0.00762589,0.08002,5.46857,108.348
45,39.811,0.0807805,0.00789549,0.0811654,5.58236,110.326
46,31.623,0.0819505,0.00817187,0.0823569,5.69454,112.367
47,25.119,0.0831275,0.00845203,0.083556,5.80563,114.453
48,19.953,0.0843493,0.00872779,0.0847996,5.90749,116.799
49,15.849,0.085606,0.0090214,0.08608,6.01579,119.146
50,12.589,0.0868422,0.00933106,0.0873421,6.13281,121.622
51,10,0.0880326,0.00966931,0.088562,6.26812,124.355
52,7.9433,0.0892963,0.0100745,0.0898628,6.43697,127.068
53,6.3096,0.0904125,0.0105769,0.0910291,6.67241,129.92
54,5.0119,0.0915171,0.0112538,0.0922064,7.0104,132.777
55,3.9811,0.0926243,0.0121465,0.0934173,7.47101,135.657
56,3.1623,0.0936337,0.0133503,0.0945807,8.11455,138.599
57,2.5119,0.0946861,0.0149482,0.0958588,8.97131,141.602
58,1.9953,0.0958439,0.0170157,0.0973426,10.0671,144.717
59,1.5849,0.0971779,0.0195734,0.0991296,11.388,147.91
60,1.2589,0.0987134,0.022851,0.101324,13.0337,151.22
61,1,0.101025,0.0270541,0.104585,14.9918,154.869
62,0.79433,0.103417,0.0318169,0.108201,17.1008,158.512
63,0.63096,0.106442,0.0375848,0.112883,19.4481,162.45
64,0.50119,0.110492,0.0445175,0.119123,21.9446,166.683
65,0.39811,0.115323,0.05257,0.12674,24.5059,171.378
66,0.31623,0.121994,0.0614757,0.136608,26.7447,176.546
67,0.25119,0.130943,0.0715173,0.1492,28.6422,182.367
68,0.19953,0.141475,0.0814985,0.16327,29.9446,189.023
69,0.15849,0.154721,0.0918427,0.179927,30.6935,196.706
70,0.12589,0.170827,0.101803,0.198861,30.7925,205.746
71,0.1,0.189821,0.110103,0.219442,30.1152,216.354

File: NCA_1_Pristine_25C.txt
Index,Frequency (Hz),Z' (Ω),-Z'' (Ω),Z (Ω),-Phase (°),Time (s)
1,1000000,1.32835,-1.31759,1.87098,-44.7669,18.9701
2,794330,0.992618,-1.23706,1.58607,-51.2564,20.8118
3,630960,0.746655,-1.10158,1.33078,-55.8704,24.2321
4,501190,0.555691,-0.95665,1.10633,-59.8489,30.3821
5,398110,0.416679,-0.81257,0.913177,-62.8516,34.9696
6,316230,0.317584,-0.679516,0.750068,-64.9501,38.1544
7,251190,0.246797,-0.562558,0.614312,-66.3127,41.2737
8,199530,0.199415,-0.46444,0.505441,-66.7629,44.5013
9,158490,0.164126,-0.382071,0.415831,-66.7531,46.2136
10,125890,0.138435,-0.313828,0.343005,-66.1969,47.9213
11,100000,0.119272,-0.257339,0.283636,-65.1332,51.2416
12,79433,0.104965,-0.210738,0.235432,-63.5229,52.9528
13,63096,0.0941419,-0.172393,0.196423,-61.3615,54.7666
14,50119,0.0858827,-0.140789,0.164916,-58.6164,56.5853
15,39811,0.0795746,-0.114812,0.139692,-55.2747,58.3198
16,31623,0.0747621,-0.0935052,0.119719,-51.3559,60.1267
17,25119,0.0710221,-0.0759512,0.103984,-46.9208,61.9892
18,19953,0.0678298,-0.0613223,0.0914402,-42.1155,63.7061
19,15849,0.0656654,-0.0495521,0.082264,-37.0388,65.5276
20,12589,0.0640338,-0.0398519,0.0754221,-31.8964,67.2806
21,10000,0.0628831,-0.0318496,0.0704889,-26.8617,70.4126
22,7943.3,0.0620708,-0.0252564,0.0670125,-22.1412,72.0316
23,6309.6,0.0616091,-0.0198655,0.0647326,-17.8716,73.7584
24,5011.9,0.0610521,-0.015371,0.0629574,-14.1316,75.4952
25,3981.1,0.060988,-0.0117824,0.0621157,-10.9344,77.1994
26,3162.3,0.0610517,-0.00885336,0.0616903,-8.25117,78.9056
27,2511.9,0.0611888,-0.00643596,0.0615263,-6.00442,80.6771
28,1995.3,0.0614221,-0.0044568,0.0615836,-4.15012,82.3879
29,1584.9,0.0617102,-0.0028345,0.0617753,-2.62989,84.0527
30,1258.9,0.0620486,-0.00150257,0.0620667,-1.3872,85.7535
31,1000,0.062633,-0.000352989,0.062634,-0.322906,87.5288
32,794.33,0.0631078,0.000539565,0.0631101,0.489861,89.3533
33,630.96,0.0633605,0.0012684,0.0633732,1.14684,91.0596
34,501.19,0.0638695,0.00188539,0.0638973,1.69085,92.8126
35,398.11,0.0644382,0.00239908,0.0644829,2.13218,94.5142
36,316.23,0.0650398,0.00283026,0.0651013,2.4917,96.245
37,251.19,0.0656426,0.00319442,0.0657203,2.78603,98.0064
38,199.53,0.0662852,0.00350511,0.0663778,3.02694,99.7782
39,158.49,0.066896,0.00377442,0.0670024,3.22933,101.515
40,125.89,0.0675599,0.00401616,0.0676792,3.402,103.302
41,100,0.0682334,0.00424471,0.0683654,3.55971,105.08
42,79.433,0.0689099,0.00444064,0.0690528,3.68712,106.924
43,63.096,0.0695774,0.00462729,0.0697311,3.80489,108.786
44,50.119,0.0702717,0.00480441,0.0704357,3.91117,110.849
45,39.811,0.0710204,0.00497727,0.0711946,4.00886,112.849
46,31.623,0.0717426,0.00513917,0.0719265,4.09729,114.873
47,25.119,0.0724774,0.00528745,0.07267,4.17252,116.952
48,19.953,0.073202,0.00543382,0.0734034,4.24531,119.297
49,15.849,0.0739161,0.00560617,0.0741284,4.3373,121.639
50,12.589,0.0745619,0.00582693,0.0747892,4.46852,124.097
51,10,0.0751657,0.00612966,0.0754152,4.66208,126.816
52,7.9433,0.0757525,0.00655672,0.0760357,4.94688,129.53
53,6.3096,0.0763545,0.00714967,0.0766885,5.34945,132.375
54,5.0119,0.0769053,0.00795136,0.0773152,5.90293,135.149
55,3.9811,0.0775093,0.00900413,0.0780306,6.62626,137.977
56,3.1623,0.0781765,0.0103633,0.0788604,7.55124,140.902
57,2.5119,0.0789753,0.0120705,0.0798924,8.68978,143.911
58,1.9953,0.0799316,0.0141998,0.0811831,10.0735,146.978
59,1.5849,0.0811741,0.0167545,0.0828851,11.6622,150.135
60,1.2589,0.0827614,0.0198476,0.0851081,13.4858,153.413
61,1,0.0848929,0.0235134,0.0880891,15.4815,157.074
62,0.79433,0.0876114,0.0276691,0.0918768,17.527,160.732
63,0.63096,0.0911104,0.032373,0.0966908,19.561,164.621
64,0.50119,0.0957136,0.0374742,0.102788,21.3816,168.841
65,0.39811,0.102074,0.0432786,0.11087,22.9767,173.53
66,0.31623,0.109299,0.0486747,0.119647,24.0051,178.721
67,0.25119,0.118213,0.0534818,0.129749,24.3428,184.578
68,0.19953,0.128068,0.0576382,0.14044,24.2306,191.24
69,0.15849,0.138878,0.0606593,0.151548,23.5947,198.946
70,0.12589,0.150465,0.0619092,0.162703,22.3649,207.9
71,0.1,0.161628,0.0617985,0.173039,20.9244,218.485

File: NCA_1_Pristine_35C.txt
Index,Frequency (Hz),Z' (Ω),-Z'' (Ω),Z (Ω),-Phase (°),Time (s)
1,1000000,1.40913,-1.35709,1.95636,-43.9223,19.0061
2,794330,1.06536,-1.27385,1.66063,-50.0933,20.8391
3,630960,0.814676,-1.14137,1.40229,-54.4818,24.2974
4,501190,0.616239,-0.997629,1.17261,-58.2962,27.5995
5,398110,0.469203,-0.853745,0.974183,-61.2076,32.2382
6,316230,0.362153,-0.719789,0.805761,-63.2913,35.3517
7,251190,0.283778,-0.601518,0.665097,-64.7435,38.5175
8,199530,0.229381,-0.500773,0.550808,-65.3897,40.2383
9,158490,0.187656,-0.415597,0.456,-65.6992,42.0467
10,125890,0.156338,-0.343585,0.377482,-65.5336,43.8027
11,100000,0.13265,-0.282904,0.312459,-64.8788,47.0001
12,79433,0.115017,-0.232016,0.258961,-63.6311,48.6202
13,63096,0.101907,-0.189661,0.215305,-61.7505,50.4404
14,50119,0.0922188,-0.154502,0.179931,-59.1679,52.2577
15,39811,0.0851974,-0.125681,0.151837,-55.8673,54.0699
16,31623,0.0799747,-0.101986,0.129604,-51.8974,55.858
17,25119,0.0760923,-0.0826492,0.112343,-47.3653,57.5837
18,19953,0.073217,-0.0669233,0.099194,-42.4286,59.4071
19,15849,0.0706107,-0.0537761,0.0887566,-37.2924,61.2335
20,12589,0.0689116,-0.0432289,0.0813483,-32.1005,62.9926
21,10000,0.0677173,-0.0345922,0.0760411,-27.0594,66.1318
22,7943.3,0.0668916,-0.0275137,0.0723291,-22.3582,67.7575
23,6309.6,0.0664396,-0.0217663,0.0699142,-18.1393,69.4854
24,5011.9,0.0657965,-0.0169805,0.0679523,-14.4709,71.3088
25,3981.1,0.0657266,-0.0131978,0.0670386,-11.3539,73.0212
26,3162.3,0.065711,-0.0101122,0.0664845,-8.74856,74.7609
27,2511.9,0.06582,-0.00759789,0.0662571,-6.58476,76.5729
28,1995.3,0.0659444,-0.00555587,0.066178,-4.81584,78.2826
29,1584.9,0.0661191,-0.00390613,0.0662344,-3.38095,79.9494
30,1258.9,0.0663719,-0.00257521,0.0664218,-2.22195,81.6761
31,1000,0.0668732,-0.00144499,0.0668888,-1.23785,83.3975
32,794.33,0.0672195,-0.000598947,0.0672222,-0.510509,85.2259
33,630.96,0.0676088,8.67922e-05,0.0676089,0.0735529,86.9331
34,501.19,0.0676542,0.000629285,0.0676571,0.532921,88.6842
35,398.11,0.0680377,0.0010812,0.0680463,0.910418,90.3804
36,316.23,0.0684295,0.00145304,0.0684449,1.21644,92.0978
37,251.19,0.0688089,0.00176472,0.0688316,1.46913,93.9128
38,199.53,0.0692366,0.0020313,0.0692664,1.68049,95.6379
39,158.49,0.0696514,0.00226075,0.0696881,1.85905,97.3705
40,125.89,0.0700451,0.00246096,0.0700883,2.0122,99.167
41,100,0.0705094,0.00264192,0.0705589,2.14581,100.975
42,79.433,0.0709698,0.00277823,0.0710242,2.2418,102.781
43,63.096,0.0714171,0.00289067,0.0714756,2.31783,104.649
44,50.119,0.0718939,0.00298713,0.0719559,2.37922,106.782
45,39.811,0.0723161,0.00307482,0.0723814,2.43471,108.719
46,31.623,0.0727021,0.00316644,0.072771,2.49386,110.744
47,25.119,0.0731062,0.00328065,0.0731798,2.56943,112.829
48,19.953,0.0734687,0.00341217,0.0735479,2.65913,115.129
49,15.849,0.0739093,0.0036151,0.0739977,2.80025,117.479
50,12.589,0.0742,0.00388257,0.0743015,2.99531,120.01
51,10,0.0745927,0.00424433,0.0747134,3.25662,122.697
52,7.9433,0.0749369,0.00472141,0.0750855,3.60516,125.407
53,6.3096,0.0753355,0.00534665,0.075525,4.05954,128.227
54,5.0119,0.0757957,0.00614711,0.0760446,4.6366,131.008
55,3.9811,0.0763695,0.00712902,0.0767015,5.33305,133.818
56,3.1623,0.0770319,0.0083205,0.0774799,6.16483,136.775
57,2.5119,0.0779103,0.00975443,0.0785185,7.13635,139.809
58,1.9953,0.0790583,0.011422,0.0798791,8.22098,142.877
59,1.5849,0.0805073,0.0132966,0.0815979,9.37835,146.107
60,1.2589,0.0823446,0.0153641,0.0837657,10.5689,149.418
61,1,0.0847653,0.0175591,0.0865649,11.7033,153.087
62,0.79433,0.0876478,0.0197157,0.0898379,12.6773,156.715
63,0.63096,0.0911894,0.0217426,0.0937456,13.4109,160.59
64,0.50119,0.0952406,0.0234241,0.0980788,13.8175,164.896
65,0.39811,0.0996615,0.0246778,0.102671,13.9076,169.517
66,0.31623,0.104785,0.025422,0.107825,13.6371,174.692
67,0.25119,0.109565,0.0253864,0.112468,13.0453,180.512
68,0.19953,0.113999,0.0250404,0.116716,12.3886,187.121
69,0.15849,0.118127,0.024181,0.120577,11.5688,194.813
70,0.12589,0.121964,0.0231248,0.124136,10.7361,203.755
71,0.1,0.124946,0.021974,0.126864,9.97447,214.332

File: NCA_2_Pristine_5C.txt
Index,Frequency (Hz),Z' (Ω),-Z'' (Ω),Z (Ω),-Phase (°),Time (s)
1,1000000,1.37887,-1.4731,2.01775,-46.8924,18.9894
2,794330,1.00647,-1.35812,1.69041,-53.4589,20.966
3,630960,0.746604,-1.1901,1.4049,-57.898,24.3813
4,501190,0.551154,-1.02016,1.15952,-61.6193,27.7113
5,398110,0.411637,-0.859792,0.953251,-64.4166,32.3329
6,316230,0.312875,-0.715232,0.780672,-66.3733,35.4413
7,251190,0.242441,-0.589336,0.637256,-67.6387,38.5406
8,199530,0.195711,-0.484756,0.522772,-68.0145,41.7589
9,158490,0.161137,-0.397398,0.428824,-67.9284,43.473
10,125890,0.136102,-0.325145,0.352481,-67.2864,45.1953
11,100000,0.117621,-0.265619,0.290496,-66.1154,48.4124
12,79433,0.103991,-0.216767,0.24042,-64.3713,50.0411
13,63096,0.0937443,-0.176656,0.199988,-62.0469,51.8936
14,50119,0.0859955,-0.143747,0.167506,-59.1103,53.7049
15,39811,0.0801395,-0.116859,0.141698,-55.5584,55.5058
16,31623,0.0756361,-0.0948451,0.121311,-51.4287,57.2429
17,25119,0.0722182,-0.0768837,0.105483,-46.7922,58.9749
18,19953,0.0692214,-0.0618914,0.0928555,-41.8002,60.7917
19,15849,0.0672052,-0.049848,0.0836741,-36.5654,62.5179
20,12589,0.0656694,-0.0399185,0.0768502,-31.2942,64.26
21,10000,0.0646818,-0.0317595,0.0720583,-26.1515,67.3799
22,7943.3,0.0639462,-0.0249953,0.0686577,-21.3495,68.9948
23,6309.6,0.0635635,-0.0194351,0.0664684,-17.0015,70.7259
24,5011.9,0.0630664,-0.0147731,0.0647736,-13.1837,72.5427
25,3981.1,0.0631151,-0.0110207,0.0640701,-9.9047,74.2685
26,3162.3,0.0632839,-0.00791717,0.0637772,-7.13098,75.9737
27,2511.9,0.06354,-0.00532482,0.0637627,-4.79035,77.71
28,1995.3,0.0638992,-0.0031586,0.0639772,-2.82988,79.4205
29,1584.9,0.0643532,-0.00133562,0.064367,-1.18898,81.0906
30,1258.9,0.0648608,0.000219257,0.0648612,0.193683,82.7915
31,1000,0.0657194,0.00160945,0.0657391,1.40288,84.5131
32,794.33,0.066438,0.00278809,0.0664964,2.40303,86.3293
33,630.96,0.0669037,0.00382147,0.0670128,3.26912,88.0287
34,501.19,0.0677486,0.00478913,0.0679177,4.04349,89.7907
35,398.11,0.068687,0.00569245,0.0689225,4.73758,91.4914
36,316.23,0.0697064,0.00655107,0.0700135,5.36894,93.2179
37,251.19,0.0708758,0.00738623,0.0712597,5.94953,94.9741
38,199.53,0.0720611,0.00818817,0.0725248,6.48261,96.7368
39,158.49,0.07339,0.00898115,0.0739375,6.97693,98.4972
40,125.89,0.0748213,0.0097567,0.0754547,7.42945,100.276
41,100,0.0763447,0.0105223,0.0770664,7.84744,102.052
42,79.433,0.0779944,0.0112563,0.0788025,8.21232,103.87
43,63.096,0.0797315,0.0119768,0.080626,8.54279,105.742
44,50.119,0.0815316,0.0126784,0.0825115,8.83885,107.821
45,39.811,0.0835028,0.0133813,0.0845682,9.10425,109.8
46,31.623,0.0855544,0.0140629,0.0867024,9.33443,111.838
47,25.119,0.0876909,0.0147261,0.0889188,9.53287,113.829
48,19.953,0.0898551,0.0153458,0.0911561,9.69168,116.141
49,15.849,0.0921641,0.0159745,0.0935382,9.8332,118.485
50,12.589,0.0944959,0.0165867,0.0959406,9.95563,120.954
51,10,0.0968616,0.017236,0.0983832,10.0899,123.656
52,7.9433,0.0991843,0.0179247,0.100791,10.244,126.356
53,6.3096,0.102054,0.0188011,0.103772,10.4384,129.191
54,5.0119,0.104463,0.0197318,0.106311,10.6964,131.982
55,3.9811,0.106859,0.0208215,0.108869,11.026,134.805
56,3.1623,0.109236,0.0221457,0.111458,11.4604,137.736
57,2.5119,0.111695,0.0238415,0.114211,12.0491,140.728
58,1.9953,0.113944,0.0259214,0.116855,12.8162,143.789
59,1.5849,0.116409,0.0286115,0.119874,13.8086,146.972
60,1.2589,0.118675,0.0320903,0.122937,15.1313,150.301
61,1,0.121234,0.0364057,0.126582,16.7146,153.975
62,0.79433,0.12432,0.0419523,0.131208,18.6472,157.607
63,0.63096,0.127406,0.0487986,0.136431,20.9577,161.518
64,0.50119,0.131061,0.0575524,0.143141,23.7075,165.743
65,0.39811,0.135974,0.0676653,0.15188,26.4566,170.424
66,0.31623,0.142209,0.0802643,0.163297,29.4408,175.569
67,0.25119,0.149403,0.0953376,0.17723,32.543,181.391
68,0.19953,0.160139,0.112212,0.19554,35.0195,188.013
69,0.15849,0.173539,0.132064,0.218075,37.2712,195.708
70,0.12589,0.189405,0.154529,0.244445,39.2097,204.643
71,0.1,0.210794,0.181096,0.277902,40.6663,215.249