Folder: ECSHackWeek_Dallas/tutorials/data/eis

Note: tutorials/data/eis/LCO_1_Cycling_5C.txt
ZPLOT2 ASCII
  Measured Data, ZPlot:       3.2c
  Experiment Type:            Sweep Frequency, Control Voltage
  Date:                       03-22-2017
  Time:                       11:48:23
  Open Circuit Potential (V): 3.7312
  Begin User Comments:        0
  End User Comments:          0
  Begin Experiment:           0
    Potential-DC:             0
    Potential-DC Type:        0
    Potential-AC:             5
    Potential-Monitor Type:   0
    Potential-Monitor TargetI:1
    Potential-Monitor Limit:  3000
    Potential-Monitor Error:  25
    Current-DC:               0
    Current-AC:               0.1
    Current-Monitor Type:     0
    Current-Monitor TargetE:  20
    Current-Monitor Limit:    60
    Current-Monitor Error:    25
    vs Freq-Initial:          100000
    vs Freq-Final:            0.1
    vs Freq-Lin/Log Type:     1
    vs Freq-Linear Type:      1
    vs Freq-Linear Interval:  100
    vs Freq-Log Type:         0
    vs Freq-Log Interval:     10
    Harmonics:                3
    PolE-Initial:             0
    PolE-Final:               0.2
    PolE-InitialType:         0
    PolE-FinalType:           0
    PolE-SweepRate:           1
    PolE-SweepRateType:       0
    PolE-DataRate:            5
    PolE-SegmentNo:           2
    PolE-IR:                  0
    AmplE-Initial:            10
    AmplE-Final:              200
    AmplE-SweepRate:          1
    AmplE-DataRate:           5
    AmplE-SegmentNo:          2
    PolI-Initial:             0
    PolI-Vertex:              0.01
    PolI-Final:               0.01
    PolI-SweepRate:           0.1
    PolI-SweepRateType:       0
    PolI-DataRate:            5
    PolI-SegmentNo:           2
    AmplI-Initial:            0.1
    AmplI-Final:              10
    AmplI-SweepRate:          0.1
    AmplI-DataRate:           5
    AmplI-SegmentNo:          2
    vs Time-Freq:             1000
    vs Time-Harmonic:         1
    vs Time-Total Time:       100
    vs Time-Time Type:        0
    vs Time-Interval:         5
  End Experiment:             0
  Begin Pstat/Gstat:          1287
    Pstat Range High:         0
    Pstat Range Low:          0
    Pstat Range Frequency:    5000
    Pstat Range Minimum:      0
    Pstat Limit Range:        0
    Pstat Limit Type:         2
    Pstat Bandwidth:          2
    Pstat Use Aux:            0
    Gstat Range:              0
    Gstat Bandwidth:          2
    Filter:                   1
    Error Beep:               0
    Bias Rejection:           1
    Attenuator:               2
    Grounding:                0
    Calibration File
  End Pstat/Gstat:            1287
  Begin Analyzer:             1260
    Z60 Mode:                 3
    Z60 GD Freq-:             5
    Z60 GD Freq+:             5
    Bias Voltage:             0
    Auto Integration Type:    0
    Integration Time Type:    0
    Integration Seconds:      0.2
    Integration

Note: tutorials/data/eis/LCO_1_Cycling_15C.txt
ZPLOT2 ASCII
  Measured Data, ZPlot:       3.2c
  Experiment Type:            Sweep Frequency, Control Voltage
  Date:                       02-14-2017
  Time:                       12:43:00
  Open Circuit Potential (V): 3.616
  Begin User Comments:        0
  End User Comments:          0
  Begin Experiment:           0
    Potential-DC:             0
    Potential-DC Type:        0
    Potential-AC:             5
    Potential-Monitor Type:   0
    Potential-Monitor TargetI:1
    Potential-Monitor Limit:  3000
    Potential-Monitor Error:  25
    Current-DC:               0
    Current-AC:               0.1
    Current-Monitor Type:     0
    Current-Monitor TargetE:  20
    Current-Monitor Limit:    60
    Current-Monitor Error:    25
    vs Freq-Initial:          100000
    vs Freq-Final:            1
    vs Freq-Lin/Log Type:     1
    vs Freq-Linear Type:      1
    vs Freq-Linear Interval:  100
    vs Freq-Log Type:         0
    vs Freq-Log Interval:     10
    Harmonics:                3
    PolE-Initial:             0
    PolE-Final:               0.2
    PolE-InitialType:         0
    PolE-FinalType:           0
    PolE-SweepRate:           1
    PolE-SweepRateType:       0
    PolE-DataRate:            5
    PolE-SegmentNo:           2
    PolE-IR:                  0
    AmplE-Initial:            10
    AmplE-Final:              200
    AmplE-SweepRate:          1
    AmplE-DataRate:           5
    AmplE-SegmentNo:          2
    PolI-Initial:             0
    PolI-Vertex:              0.01
    PolI-Final:               0.01
    PolI-SweepRate:           0.1
    PolI-SweepRateType:       0
    PolI-DataRate:            5
    PolI-SegmentNo:           2
    AmplI-Initial:            0.1
    AmplI-Final:              10
    AmplI-SweepRate:          0.1
    AmplI-DataRate:           5
    AmplI-SegmentNo:          2
    vs Time-Freq:             1000
    vs Time-Harmonic:         1
    vs Time-Total Time:       100
    vs Time-Time Type:        0
    vs Time-Interval:         5
  End Experiment:             0
  Begin Pstat/Gstat:          1287
    Pstat Range High:         0
    Pstat Range Low:          0
    Pstat Range Frequency:    5000
    Pstat Range Minimum:      0
    Pstat Limit Range:        0
    Pstat Limit Type:         2
    Pstat Bandwidth:          2
    Pstat Use Aux:            0
    Gstat Range:              0
    Gstat Bandwidth:          2
    Filter:                   1
    Error Beep:               0
    Bias Rejection:           1
    Attenuator:               2
    Grounding:                0
    Calibration File
  End Pstat/Gstat:            1287
  Begin Analyzer:             1260
    Z60 Mode:                 3
    Z60 GD Freq-:             5
    Z60 GD Freq+:             5
    Bias Voltage:             0
    Auto Integration Type:    0
    Integration Time Type:    0
    Integration Seconds:      0.2
    Integration Cy

Note: README.md
# ECSHackWeek_Seattle
Materials for the 2018 ECS Hack Week in Seattle

File: LCO_1_Pristine_5C.txt
Index,Frequency (Hz),Z' (Ω),-Z'' (Ω),Z (Ω),-Phase (°),Time (s)
1,1000000,1.29733,-1.49191,1.97709,-48.9905,14.4148
2,794330,0.92598,-1.35977,1.64511,-55.7457,16.2664
3,630960,0.671834,-1.17926,1.35721,-60.3294,19.6816
4,501190,0.484459,-0.999999,1.11117,-64.1517,23.0422
5,398110,0.353626,-0.834081,0.905949,-67.0245,27.6862
6,316230,0.263453,-0.687246,0.736013,-69.0259,30.8976
7,251190,0.200759,-0.560716,0.595573,-70.3005,34.015
8,199530,0.160562,-0.45663,0.484036,-70.6272,35.7829
9,158490,0.131739,-0.370562,0.393283,-70.4291,37.6104
10,125890,0.111738,-0.300352,0.320463,-69.5936,39.3203
11,100000,0.0974788,-0.243016,0.261837,-68.1432,42.5853
12,79433,0.0873899,-0.196674,0.215215,-66.0426,44.2191
13,63096,0.0799516,-0.158913,0.177892,-63.2923,45.9495
14,50119,0.0745136,-0.128422,0.148474,-59.8767,47.7556
15,39811,0.0704196,-0.103566,0.125239,-55.7862,49.5072
16,31623,0.067401,-0.0834038,0.107234,-51.0573,51.3185
17,25119,0.0648698,-0.0667738,0.0930959,-45.8286,53.0699
18,19953,0.0632623,-0.0535452,0.0828807,-40.2446,54.9069
19,15849,0.0620838,-0.0428009,0.0754076,-34.5826,56.6424
20,12589,0.0612714,-0.0341065,0.0701244,-29.1023,58.4696
21,10000,0.0606782,-0.027052,0.0664354,-24.0286,61.616
22,7943.3,0.0603233,-0.0213175,0.0639792,-19.4628,63.2352
23,6309.6,0.0602318,-0.0167001,0.0625041,-15.4967,64.9553
24,5011.9,0.0598423,-0.0128594,0.0612084,-12.1277,66.7007
25,3981.1,0.0599386,-0.00981984,0.0607376,-9.30421,68.4373
26,3162.3,0.0600874,-0.00733568,0.0605335,-6.96043,70.138
27,2511.9,0.0602071,-0.00527438,0.0604377,-5.00655,71.8576
28,1995.3,0.0604032,-0.00357222,0.0605087,-3.3845,73.5789
29,1584.9,0.0606378,-0.0021557,0.0606761,-2.03603,75.1752
30,1258.9,0.0609119,-0.00096692,0.0609196,-0.90944,76.8816
31,1000,0.0614089,7.65098e-05,0.061409,0.0713852,78.5961
32,794.33,0.0618664,0.000928195,0.0618734,0.859556,80.4487
33,630.96,0.0620768,0.0016456,0.0620986,1.5185,82.1628
34,501.19,0.0626095,0.00228463,0.0626512,2.08981,83.8893
35,398.11,0.063161,0.002841,0.0632248,2.57544,85.5996
36,316.23,0.0637961,0.00333921,0.0638834,2.99624,87.3575
37,251.19,0.0644964,0.00377845,0.064607,3.35277,89.1086
38,199.53,0.0651549,0.0041646,0.0652878,3.65728,90.8354
39,158.49,0.0659193,0.0045101,0.0660734,3.914,92.5753
40,125.89,0.0667151,0.00481527,0.0668886,4.12826,94.3898
41,100,0.0674906,0.0050851,0.0676819,4.30883,96.1704
42,79.433,0.0683121,0.00531357,0.0685184,4.44772,97.9764
43,63.096,0.0691337,0.00551746,0.0693536,4.56302,99.8658
44,50.119,0.0699235,0.00571357,0.0701565,4.67136,101.938
45,39.811,0.0707171,0.00591603,0.0709641,4.7821,103.884
46,31.623,0.0715075,0.00614343,0.0717709,4.9104,105.918
47,25.119,0.0723389,0.0064196,0.0726232,5.07133,107.998
48,19.953,0.0730858,0.00673368,0.0733954,5.26402,110.297
49,15.849,0.0739271,0.00716553,0.0742735,5.53621,112.638
50,12.589,0.0746803,0.00770335,0.0750766,5.88929,115.095
51,10,0.0755228,0.00839885,0.0759883,6.34576,117.79
52,7.9433,0.0764316,0.009279,0.0769928,6.92199,120.537
53,6.3096,0.0774084,0.0103609,0.0780987,7.62356,123.348
54,5.0119,0.0785885,0.0116831,0.0794522,8.45578,126.197
55,3.9811,0.0799482,0.0132493,0.0810386,9.40972,129.026
56,3.1623,0.0815786,0.0150584,0.0829567,10.4583,131.989
57,2.5119,0.0835967,0.0171077,0.0853292,11.5656,135.01
58,1.9953,0.0859933,0.0193242,0.0881378,12.665,138.086
59,1.5849,0.0889487,0.0216669,0.0915496,13.69,141.223
60,1.2589,0.0923974,0.0240366,0.0954727,14.5819,144.559
61,1,0.0963863,0.0262979,0.0999094,15.2611,148.218
62,0.79433,0.10093,0.0283386,0.104833,15.6833,151.924
63,0.63096,0.106421,0.030275,0.110644,15.8802,155.875
64,0.50119,0.111642,0.0317341,0.116064,15.8678,160.144
65,0.39811,0.117184,0.03271,0.121663,15.5963,164.826
66,0.31623,0.122834,0.0333746,0.127287,15.2006,169.978
67,0.25119,0.12829,0.0336884,0.132639,14.7135,175.818
68,0.19953,0.133834,0.0336695,0.138005,14.1212,182.425
69,0.15849,0.139339,0.0336797,0.143351,13.5884,190.112
70,0.12589,0.1442,0.0336345,0.148071,13.1294,199.109
71,0.1,0.149335,0.0337928,0.153111,12.7506,209.74

File: LCO_1_Pristine_15C.txt
Index,Frequency (Hz),Z' (Ω),-Z'' (Ω),Z (Ω),-Phase (°),Time (s)
1,1000000,1.18516,-1.32012,1.77407,-48.0835,14.3518
2,794330,0.851338,-1.20893,1.47861,-54.8465,16.1883
3,630960,0.622175,-1.05158,1.22186,-59.3891,19.6399
4,501190,0.452388,-0.894658,1.00253,-63.1763,22.9589
5,398110,0.333449,-0.748803,0.819691,-65.9962,27.5824
6,316230,0.250677,-0.618711,0.667564,-67.9442,30.7549
7,251190,0.192878,-0.507196,0.542633,-69.179,33.8948
8,199530,0.155232,-0.415193,0.443264,-69.5003,35.6273
9,158490,0.127695,-0.339021,0.362272,-69.3607,37.4813
10,125890,0.108006,-0.27666,0.296995,-68.6748,39.2078
11,100000,0.0933949,-0.225606,0.244174,-67.5118,42.4544
12,79433,0.0825291,-0.184028,0.201687,-65.8457,44.1895
13,63096,0.0742148,-0.149986,0.167343,-63.6733,46.002
14,50119,0.0677872,-0.122016,0.139581,-60.9452,47.8252
15,39811,0.0629013,-0.0991054,0.117382,-57.5971,49.6915
16,31623,0.0591869,-0.0802136,0.099686,-53.5776,51.509
17,25119,0.0561682,-0.0645013,0.0855295,-48.9504,53.2256
18,19953,0.0541811,-0.0519057,0.0750319,-43.7713,55.0535
19,15849,0.0527509,-0.0416242,0.0671955,-38.276,56.8288
20,12589,0.0517453,-0.0332762,0.0615214,-32.7441,58.5444
21,10000,0.0509675,-0.0264624,0.0574278,-27.4384,61.6594
22,7943.3,0.0504986,-0.0209294,0.054664,-22.5118,63.2861
23,6309.6,0.0502861,-0.0164678,0.0529139,-18.1327,65.005
24,5011.9,0.0498997,-0.0127741,0.0515088,-14.3591,66.7376
25,3981.1,0.0498916,-0.00984829,0.0508543,-11.1663,68.4649
26,3162.3,0.0499668,-0.00747203,0.0505224,-8.50499,70.2169
27,2511.9,0.0500571,-0.00552559,0.0503612,-6.29913,72.0287
28,1995.3,0.0502193,-0.00392018,0.050372,-4.46353,73.7344
29,1584.9,0.0504424,-0.00259717,0.0505092,-2.94743,75.4609
30,1258.9,0.0506621,-0.00150279,0.0506844,-1.69907,77.1581
31,1000,0.0510664,-0.000532646,0.0510691,-0.5976,78.8727
32,794.33,0.0514243,0.000208569,0.0514247,0.232382,80.7104
33,630.96,0.0515574,0.000811894,0.0515638,0.902183,82.4222
34,501.19,0.051952,0.00132187,0.0519688,1.45752,84.1645
35,398.11,0.0523855,0.00174643,0.0524146,1.90942,85.8618
36,316.23,0.0528538,0.00209716,0.0528954,2.27222,87.6397
37,251.19,0.0533175,0.00238546,0.0533709,2.56174,89.4001
38,199.53,0.0538189,0.00262313,0.0538828,2.79039,91.1251
39,158.49,0.0543195,0.0028146,0.0543924,2.96616,92.8666
40,125.89,0.0548235,0.00297144,0.0549039,3.10241,94.6896
41,100,0.0553378,0.0031061,0.0554249,3.21263,96.4566
42,79.433,0.0558068,0.00320537,0.0558988,3.28728,98.2802
43,63.096,0.0563052,0.00330222,0.056402,3.35647,100.174
44,50.119,0.0566896,0.00340392,0.0567917,3.43619,102.249
45,39.811,0.0571326,0.00353638,0.0572419,3.54197,104.194
46,31.623,0.0575502,0.00370814,0.0576696,3.68665,106.213
47,25.119,0.0579785,0.00393984,0.0581122,3.88747,108.309
48,19.953,0.058416,0.00423047,0.058569,4.14211,110.595
49,15.849,0.0589031,0.0046204,0.059084,4.48514,112.936
50,12.589,0.0593932,0.00510622,0.0596123,4.91381,115.397
51,10,0.0599812,0.00569577,0.060251,5.4245,118.095
52,7.9433,0.0606578,0.00639155,0.0609936,6.01509,120.849
53,6.3096,0.0615139,0.00718589,0.0619322,6.66294,123.673
54,5.0119,0.0625055,0.00805253,0.063022,7.34094,126.47
55,3.9811,0.0636966,0.0089736,0.0643256,8.01907,129.281
56,3.1623,0.0651605,0.00991373,0.0659103,8.65083,132.224
57,2.5119,0.066741,0.0107972,0.0676087,9.18958,135.25
58,1.9953,0.0686292,0.0116145,0.0696051,9.60545,138.342
59,1.5849,0.0706214,0.0122906,0.071683,9.87255,141.522
60,1.2589,0.0727991,0.0128291,0.0739209,9.99438,144.84
61,1,0.0749402,0.0131547,0.076086,9.95602,148.496
62,0.79433,0.077203,0.0133642,0.0783512,9.82083,152.159
63,0.63096,0.0793513,0.0134046,0.0804755,9.5883,156.049
64,0.50119,0.0814168,0.0134089,0.0825136,9.35235,160.316
65,0.39811,0.083513,0.0132724,0.0845611,9.03029,165.028
66,0.31623,0.0853709,0.0131587,0.0863791,8.76235,170.188
67,0.25119,0.0871307,0.0131452,0.0881167,8.57934,176.044
68,0.19953,0.0889766,0.0131158,0.0899381,8.38546,182.712
69,0.15849,0.0904956,0.0132243,0.0914567,8.31387,190.489
70,0.12589,0.0921069,0.0135121,0.0930927,8.34576,199.442
71,0.1,0.0935941,0.0142464,0.0946721,8.65482,210.062

File: LCO_1_Pristine_25C.txt
Index,Frequency (Hz),Z' (Ω),-Z'' (Ω),Z (Ω),-Phase (°),Time (s)
1,1000000,1.34165,-1.45139,1.9765,-47.2501,14.3919
2,794330,0.975421,-1.33391,1.6525,-53.8238,16.2393
3,630960,0.7226,-1.16633,1.37203,-58.2197,19.654
4,501190,0.533693,-0.999614,1.13316,-61.9023,23.0161
5,398110,0.398628,-0.843502,0.932952,-64.7052,26.2228
6,316230,0.302348,-0.704007,0.766186,-66.7581,30.6421
7,251190,0.232171,-0.581965,0.626568,-68.2509,32.2688
8,199530,0.184686,-0.480905,0.515149,-68.9912,34.0866
9,158490,0.148691,-0.395545,0.42257,-69.398,35.9027
10,125890,0.122342,-0.324247,0.346559,-69.328,37.6101
11,100000,0.10291,-0.26496,0.284243,-68.7739,40.8886
12,79433,0.0887113,-0.215917,0.23343,-67.6642,42.514
13,63096,0.0782759,-0.17556,0.19222,-65.9697,44.3123
14,50119,0.0705512,-0.142312,0.15884,-63.6301,46.1383
15,39811,0.064928,-0.115132,0.132178,-60.5795,47.9758
16,31623,0.0608441,-0.0929429,0.111087,-56.7896,49.6977
17,25119,0.0578991,-0.0748711,0.0946466,-52.2846,51.5157
18,19953,0.0554918,-0.0599361,0.0816803,-47.205,53.3861
19,15849,0.0539939,-0.0480784,0.0722971,-41.6832,55.1316
20,12589,0.0529397,-0.0384872,0.0654513,-36.0172,56.955
21,10000,0.0520375,-0.0306719,0.0604041,-30.5159,60.1083
22,7943.3,0.0515744,-0.0243763,0.0570449,-25.2974,61.7226
23,6309.6,0.0513039,-0.0192991,0.0548137,-20.6149,63.4498
24,5011.9,0.050894,-0.0151191,0.0530922,-16.5451,65.2003
25,3981.1,0.0508268,-0.0118126,0.0521814,-13.0838,66.914
26,3162.3,0.0508454,-0.00914178,0.0516607,-10.1926,68.6157
27,2511.9,0.0509152,-0.00697497,0.0513907,-7.80051,70.4381
28,1995.3,0.0509741,-0.00519788,0.0512385,-5.82238,72.2027
29,1584.9,0.0511397,-0.00375947,0.0512777,-4.20446,73.7949
30,1258.9,0.0512749,-0.00258875,0.0513402,-2.89028,75.5016
31,1000,0.051598,-0.00156449,0.0516217,-1.73672,77.2436
32,794.33,0.0518549,-0.000817815,0.0518614,-0.903549,79.091
33,630.96,0.0519069,-0.000220467,0.0519074,-0.243354,80.8024
34,501.19,0.0522197,0.000265194,0.0522204,0.29097,82.5354
35,398.11,0.0524972,0.000654857,0.0525013,0.714678,84.262
36,316.23,0.0528121,0.000967876,0.052821,1.04993,86.009
37,251.19,0.0531577,0.0012168,0.0531717,1.31129,87.7597
38,199.53,0.0534486,0.00141286,0.0534673,1.5142,89.4964
39,158.49,0.0537753,0.00156907,0.0537982,1.67132,91.3026
40,125.89,0.0540982,0.00169528,0.0541248,1.7949,93.101
41,100,0.0544246,0.00181017,0.0544547,1.90496,94.8976
42,79.433,0.054702,0.00189899,0.054735,1.98823,96.7148
43,63.096,0.0549245,0.00199331,0.0549606,2.07846,98.6033
44,50.119,0.0552057,0.00210903,0.055246,2.18781,100.683
45,39.811,0.0554321,0.00225232,0.0554778,2.32677,102.637
46,31.623,0.0557226,0.00244273,0.0557761,2.51009,104.711
47,25.119,0.0559974,0.00267854,0.0560615,2.73856,106.781
48,19.953,0.0563159,0.00294938,0.0563931,2.99796,109.077
49,15.849,0.056712,0.00328084,0.0568069,3.31092,111.465
50,12.589,0.0571549,0.00364849,0.0572713,3.65252,113.966
51,10,0.0577146,0.00404806,0.0578564,4.01211,116.683
52,7.9433,0.0583386,0.00445498,0.0585084,4.36688,119.398
53,6.3096,0.059097,0.00485175,0.0592958,4.69335,122.223
54,5.0119,0.0599185,0.00520624,0.0601443,4.96588,125.012
55,3.9811,0.0608187,0.00550346,0.0610672,5.17059,127.823
56,3.1623,0.0617883,0.00572591,0.0620531,5.29447,130.784
57,2.5119,0.0627783,0.00586135,0.0630513,5.334,133.791
58,1.9953,0.0637601,0.00591348,0.0640337,5.29878,136.932
59,1.5849,0.0647515,0.00590329,0.06502,5.20917,140.13
60,1.2589,0.0656457,0.00583634,0.0659047,5.08061,143.462
61,1,0.0665503,0.00574293,0.0667976,4.9321,147.204
62,0.79433,0.0673286,0.0056473,0.067565,4.79456,150.852
63,0.63096,0.0681305,0.00558251,0.0683588,4.68426,154.741
64,0.50119,0.0687703,0.00553127,0.0689924,4.59846,159.005
65,0.39811,0.0695118,0.00558884,0.0697361,4.59677,163.631
66,0.31623,0.0701379,0.00570476,0.0703696,4.64999,168.847
67,0.25119,0.070789,0.00583609,0.0710291,4.713,174.723
68,0.19953,0.0713761,0.00616261,0.0716417,4.93468,181.405
69,0.15849,0.0720437,0.00658266,0.0723438,5.22065,189.096
70,0.12589,0.0726585,0.007045,0.0729993,5.53811,198.042
71,0.1,0.0732498,0.00771728,0.0736552,6.01424,208.644

File: LCO_1_Pristine_35C.txt
Index,Frequency (Hz),Z' (Ω),-Z'' (Ω),Z (Ω),-Phase (°),Time (s)
1,1000000,1.36942,-1.47911,2.01571,-47.2053,18.9919
2,794330,0.994224,-1.35851,1.68346,-53.8015,20.8528
3,630960,0.736795,-1.18848,1.39834,-58.2033,24.2683
4,501190,0.543452,-1.01762,1.15364,-61.8959,30.411
5,398110,0.406161,-0.85701,0.948384,-64.6424,35.0581
6,316230,0.308878,-0.712963,0.776995,-66.5762,38.1955
7,251190,0.239143,-0.58894,0.635641,-67.9001,41.3108
8,199530,0.191964,-0.485567,0.522136,-68.4291,44.526
9,158490,0.156588,-0.398873,0.428508,-68.5662,46.256
10,125890,0.13063,-0.32652,0.351681,-68.1953,47.9782
11,100000,0.111613,-0.266812,0.289217,-67.2995,51.2047
12,79433,0.0976166,-0.217295,0.238215,-65.8087,52.9253
13,63096,0.0872923,-0.176666,0.197055,-63.7056,54.7429
14,50119,0.0796041,-0.143181,0.163822,-60.9273,56.5542
15,39811,0.0740526,-0.115898,0.137536,-57.4236,58.375
16,31623,0.0700094,-0.0936049,0.11689,-53.2063,60.0866
17,25119,0.0670449,-0.0754273,0.100917,-48.3671,61.8136
18,19953,0.0645841,-0.0604001,0.0884267,-43.0827,63.5558
19,15849,0.063016,-0.0484309,0.0794769,-37.5441,65.307
20,12589,0.0619321,-0.0387755,0.0730693,-32.0506,67.0309
21,10000,0.0611439,-0.0309417,0.0685271,-26.8416,70.2909
22,7943.3,0.0606349,-0.0246185,0.065442,-22.0977,71.9413
23,6309.6,0.0603567,-0.0195335,0.0634389,-17.9334,73.662
24,5011.9,0.0598949,-0.0153567,0.0618322,-14.3805,75.4842
25,3981.1,0.0598435,-0.0120743,0.0610494,-11.4071,77.2563
26,3162.3,0.0598524,-0.00943949,0.0605922,-8.96246,78.9558
27,2511.9,0.059843,-0.00728084,0.0602843,-6.93683,80.6726
28,1995.3,0.0599309,-0.0055458,0.0601869,-5.2869,82.4045
29,1584.9,0.0599814,-0.00414777,0.0601246,-3.95576,84.0947
30,1258.9,0.0600674,-0.00302374,0.0601435,-2.88178,85.7919
31,1000,0.0604116,-0.00206951,0.060447,-1.962,87.4988
32,794.33,0.0606162,-0.00136386,0.0606315,-1.28893,89.3572
33,630.96,0.0605526,-0.000805181,0.0605579,-0.76183,91.0717
34,501.19,0.0607405,-0.000356967,0.0607416,-0.336718,92.814
35,398.11,0.0609449,5.81453e-07,0.0609449,0.000546638,94.5263
36,316.23,0.0611518,0.000283657,0.0611524,0.265769,96.2984
37,251.19,0.0613566,0.000506722,0.0613587,0.473174,98.0386
38,199.53,0.0615555,0.000682885,0.0615593,0.635602,99.7702
39,158.49,0.0617714,0.000826439,0.0617769,0.766514,101.547
40,125.89,0.0619728,0.000950071,0.0619801,0.8783,103.344
41,100,0.0621619,0.00106635,0.062171,0.982782,105.111
42,79.433,0.0623275,0.00116591,0.0623384,1.07166,106.927
43,63.096,0.0625186,0.00127418,0.0625316,1.16757,108.84
44,50.119,0.0627024,0.00139811,0.062718,1.27735,110.905
45,39.811,0.0628777,0.00153245,0.0628964,1.39613,112.848
46,31.623,0.0630901,0.00168714,0.0631126,1.53183,114.909
47,25.119,0.0633347,0.00185282,0.0633618,1.67568,116.991
48,19.953,0.0636059,0.00200788,0.0636375,1.80809,119.289
49,15.849,0.0639693,0.00217128,0.0640062,1.94401,121.675
50,12.589,0.0643306,0.00231918,0.0643724,2.06468,124.138
51,10,0.0647396,0.00244338,0.0647857,2.16141,126.833
52,7.9433,0.0651684,0.00253194,0.0652176,2.22495,129.543
53,6.3096,0.0655971,0.00258878,0.0656482,2.26,132.338
54,5.0119,0.0660066,0.00260824,0.0660581,2.26285,135.186
55,3.9811,0.0664678,0.00260533,0.0665189,2.24467,138.017
56,3.1623,0.0668175,0.00257877,0.0668672,2.21019,141.009
57,2.5119,0.067229,0.002545,0.0672772,2.16793,144
58,1.9953,0.0675714,0.00251296,0.0676181,2.12983,147.12
59,1.5849,0.067915,0.00248741,0.0679605,2.09754,150.308
60,1.2589,0.0682006,0.00247789,0.0682456,2.08077,153.675
61,1,0.0685363,0.00249236,0.0685816,2.08268,157.334
62,0.79433,0.0688062,0.00255444,0.0688536,2.12614,160.942
63,0.63096,0.0691181,0.00265432,0.069169,2.19923,164.798
64,0.50119,0.0693541,0.00280991,0.069411,2.32009,169.014
65,0.39811,0.0696827,0.00299195,0.0697469,2.45858,173.674
66,0.31623,0.0699939,0.00324626,0.0700692,2.65543,178.88
67,0.25119,0.070285,0.00358267,0.0703763,2.91803,184.7
68,0.19953,0.0706681,0.0039313,0.0707774,3.18411,191.299
69,0.15849,0.0710276,0.00439316,0.0711633,3.53932,199.027
70,0.12589,0.0713886,0.0049775,0.0715619,3.98843,207.974
71,0.1,0.0718694,0.00571126,0.072096,4.54359,218.596