Folder: ECSHackWeek_Dallas/tutorials/data/eis (part 2)

File: LCO_1_Pristine_45C.txt
Index,Frequency (Hz),Z' (Ω),-Z'' (Ω),Z (Ω),-Phase (°),Time (s)
1,1000000,1.41118,-1.60294,2.13561,-48.6403,14.3776
2,794330,1.00765,-1.46618,1.77905,-55.5007,17.7172
3,630960,0.729702,-1.27837,1.47197,-60.282,19.447
4,501190,0.523053,-1.08811,1.20729,-64.3264,22.8823
5,398110,0.37781,-0.909645,0.984984,-67.4451,26.0915
6,316230,0.277432,-0.750981,0.800588,-69.7244,30.5454
7,251190,0.207524,-0.613571,0.647715,-71.3133,32.1697
8,199530,0.162435,-0.500364,0.526069,-72.0148,34.0324
9,158490,0.129939,-0.406447,0.426712,-72.2711,35.8553
10,125890,0.107419,-0.329854,0.346904,-71.9619,37.5604
11,100000,0.091336,-0.267311,0.282484,-71.1355,40.7921
12,79433,0.0798743,-0.216543,0.230804,-69.7529,42.5141
13,63096,0.071403,-0.1753,0.189284,-67.838,44.3258
14,50119,0.0650992,-0.141771,0.156003,-65.3361,46.1534
15,39811,0.0603656,-0.114559,0.12949,-62.2135,47.9798
16,31623,0.0568494,-0.0925011,0.108574,-58.4259,49.793
17,25119,0.0539528,-0.074246,0.0917789,-53.995,51.6106
18,19953,0.0519952,-0.0597126,0.0791776,-48.952,53.3724
19,15849,0.0506169,-0.0479722,0.0697381,-43.4634,55.1022
20,12589,0.0495951,-0.0384522,0.0627555,-37.7872,56.9256
21,10000,0.0487047,-0.0307095,0.0575779,-32.2325,60.0647
22,7943.3,0.0482342,-0.0244845,0.0540928,-26.9132,61.6827
23,6309.6,0.0479335,-0.0194741,0.0517384,-22.1105,63.4005
24,5011.9,0.0474924,-0.015353,0.0499123,-17.9146,65.2447
25,3981.1,0.0473942,-0.012121,0.0489197,-14.3458,66.9454
26,3162.3,0.0473659,-0.00952619,0.0483144,-11.3716,68.658
27,2511.9,0.0473552,-0.00743313,0.047935,-8.92067,70.4555
28,1995.3,0.0473676,-0.00573401,0.0477134,-6.90226,72.229
29,1584.9,0.0474007,-0.00436199,0.047601,-5.25777,73.9096
30,1258.9,0.0474423,-0.00325814,0.047554,-3.92867,75.6187
31,1000,0.04766,-0.00230772,0.0477158,-2.77213,77.342
32,794.33,0.047776,-0.00161612,0.0478033,-1.9374,79.1876
33,630.96,0.0476993,-0.00106831,0.0477112,-1.28303,80.8948
34,501.19,0.0478678,-0.000635454,0.047872,-0.760568,82.6278
35,398.11,0.0480293,-0.000291541,0.0480302,-0.347785,84.3497
36,316.23,0.0481711,-2.13811e-05,0.0481711,-0.0254311,86.0773
37,251.19,0.0483072,0.000190816,0.0483076,0.22632,87.8201
38,199.53,0.0484714,0.000361409,0.0484727,0.427197,89.557
39,158.49,0.0486284,0.000501419,0.048631,0.590769,91.3321
40,125.89,0.0487435,0.000624556,0.0487475,0.734098,93.1194
41,100,0.0488692,0.000736228,0.0488747,0.863112,94.901
42,79.433,0.0490329,0.000836357,0.0490401,0.977202,96.7188
43,63.096,0.0491701,0.00093527,0.049179,1.0897,98.611
44,50.119,0.0492916,0.00103081,0.0493024,1.19802,100.678
45,39.811,0.0494648,0.00112725,0.0494776,1.30548,102.622
46,31.623,0.0496416,0.00121637,0.0496565,1.40364,104.703
47,25.119,0.0498512,0.0012971,0.0498681,1.49046,106.768
48,19.953,0.0501081,0.00135319,0.0501264,1.54692,109.092
49,15.849,0.0503083,0.00139314,0.0503276,1.58623,111.45
50,12.589,0.0505302,0.00141764,0.0505501,1.60703,113.912
51,10,0.0507979,0.0014222,0.0508178,1.6037,116.6
52,7.9433,0.0510424,0.00141298,0.0510619,1.58568,119.325
53,6.3096,0.0512547,0.00139985,0.0512738,1.56445,122.151
54,5.0119,0.0514322,0.00137596,0.0514506,1.53246,125.016
55,3.9811,0.0516258,0.00135634,0.0516436,1.50496,127.832
56,3.1623,0.0517865,0.00134643,0.051804,1.48934,130.797
57,2.5119,0.051983,0.00134588,0.0520004,1.4831,133.713
58,1.9953,0.0521117,0.0013651,0.0521296,1.50056,136.827
59,1.5849,0.0522367,0.00139918,0.0522554,1.53433,140.01
60,1.2589,0.0524232,0.00146194,0.0524435,1.59741,143.366
61,1,0.0525315,0.00154581,0.0525543,1.68552,147.005
62,0.79433,0.0527316,0.00167221,0.0527581,1.81634,150.674
63,0.63096,0.0528685,0.00183074,0.0529002,1.98326,154.553
64,0.50119,0.0530097,0.0020337,0.0530487,2.19705,158.81
65,0.39811,0.0532128,0.00224951,0.0532603,2.42068,163.43
66,0.31623,0.0534621,0.00252731,0.0535218,2.70653,168.65
67,0.25119,0.0536731,0.00286067,0.0537493,3.05086,174.496
68,0.19953,0.0539793,0.00320516,0.0540744,3.39809,181.185
69,0.15849,0.0542629,0.00364273,0.054385,3.84058,188.89
70,0.12589,0.0545353,0.00417674,0.054695,4.3796,197.823
71,0.1,0.0548813,0.00488116,0.055098,5.08253,208.463

File: LCO_2_Pristine_5C.txt
Index,Frequency (Hz),Z' (Ω),-Z'' (Ω),Z (Ω),-Phase (°),Time (s)
1,1000000,1.33034,-1.51591,2.01687,-48.7304,14.3967
2,794330,0.954122,-1.38242,1.67971,-55.3872,16.3032
3,630960,0.695799,-1.19823,1.3856,-59.8568,18.1288
4,501190,0.505704,-1.0178,1.13651,-63.5791,24.31
5,398110,0.37283,-0.850015,0.928185,-66.317,28.9572
6,316230,0.2807,-0.700963,0.755077,-68.1764,32.0708
7,251190,0.216558,-0.573087,0.612639,-69.2994,35.2262
8,199530,0.175036,-0.467413,0.499111,-69.4701,36.9603
9,158490,0.145041,-0.380186,0.406913,-69.1181,38.7668
10,125890,0.123938,-0.308913,0.332848,-68.139,40.478
11,100000,0.108651,-0.250614,0.273153,-66.5614,43.8049
12,79433,0.0976854,-0.203412,0.225652,-64.3481,45.4643
13,63096,0.0893873,-0.164634,0.187335,-61.5004,47.2897
14,50119,0.0832674,-0.133153,0.157045,-57.9802,49.1353
15,39811,0.0787607,-0.107559,0.133313,-53.7865,50.9618
16,31623,0.0753936,-0.0866337,0.114846,-48.9683,52.6911
17,25119,0.0730016,-0.069673,0.100914,-43.6635,54.5606
18,19953,0.0708591,-0.0556111,0.0900755,-38.1253,56.2899
19,15849,0.0696272,-0.0444726,0.0826181,-32.5674,58.1246
20,12589,0.0687563,-0.0354435,0.0773542,-27.2708,59.8437
21,10000,0.0681971,-0.0281558,0.0737807,-22.4338,62.9848
22,7943.3,0.0678273,-0.022206,0.0713699,-18.128,64.6106
23,6309.6,0.0676598,-0.0173974,0.0698607,-14.4201,66.3446
24,5011.9,0.0672653,-0.01343,0.0685929,-11.2911,68.0912
25,3981.1,0.0673277,-0.010278,0.0681077,-8.67958,69.7921
26,3162.3,0.067439,-0.00769437,0.0678766,-6.50894,71.5005
27,2511.9,0.0675302,-0.0055568,0.0677584,-4.70405,73.3061
28,1995.3,0.0677253,-0.00379417,0.0678315,-3.20652,75.0476
29,1584.9,0.0679827,-0.00232744,0.0680225,-1.9608,76.7169
30,1258.9,0.0682392,-0.00109584,0.068248,-0.920021,78.4623
31,1000,0.0687868,-9.78513e-06,0.0687868,-0.00815049,80.2025
32,794.33,0.0692665,0.000868457,0.069272,0.718331,82.0238
33,630.96,0.0694476,0.00161438,0.0694664,1.33166,83.7327
34,501.19,0.0699479,0.0022737,0.0699849,1.86178,85.4616
35,398.11,0.0705316,0.00285022,0.0705891,2.31409,87.1882
36,316.23,0.071164,0.00336143,0.0712434,2.70435,88.9232
37,251.19,0.0718825,0.00381711,0.0719837,3.03967,90.7041
38,199.53,0.0725924,0.00421853,0.0727148,3.32587,92.4307
39,158.49,0.0733305,0.00457688,0.0734732,3.57145,94.1964
40,125.89,0.0741049,0.00489174,0.0742662,3.77667,95.9926
41,100,0.074971,0.00517796,0.0751496,3.95092,97.7739
42,79.433,0.0757799,0.00541418,0.0759731,4.08661,99.6219
43,63.096,0.0766388,0.00562697,0.076845,4.19924,101.475
44,50.119,0.0774838,0.00582967,0.0777028,4.30267,103.552
45,39.811,0.0782888,0.00603298,0.0785209,4.40654,105.496
46,31.623,0.079096,0.0062574,0.0793432,4.52333,107.523
47,25.119,0.0799065,0.00652551,0.0801725,4.66866,109.603
48,19.953,0.0806735,0.0068354,0.0809626,4.84305,111.903
49,15.849,0.0815402,0.0072557,0.0818624,5.08496,114.245
50,12.589,0.0823388,0.00779389,0.0827068,5.4073,116.733
51,10,0.0831592,0.00848355,0.0835908,5.82492,119.455
52,7.9433,0.0840754,0.00935984,0.0845948,6.35239,122.169
53,6.3096,0.0850568,0.0104403,0.0856952,6.99774,125.004
54,5.0119,0.0861641,0.0117564,0.0869624,7.76958,127.789
55,3.9811,0.0875603,0.0133284,0.088569,8.6551,130.609
56,3.1623,0.0891872,0.0151382,0.0904629,9.63329,133.538
57,2.5119,0.0911904,0.0171779,0.0927942,10.668,136.548
58,1.9953,0.0936225,0.0194087,0.0956131,11.712,139.654
59,1.5849,0.0965683,0.0217446,0.0989862,12.6899,142.822
60,1.2589,0.100028,0.0241331,0.102898,13.5642,146.164
61,1,0.104454,0.0265103,0.107766,14.2409,149.819
62,0.79433,0.109122,0.0286096,0.11281,14.6911,153.459
63,0.63096,0.114038,0.0303496,0.118007,14.9031,157.332
64,0.50119,0.119303,0.0318405,0.123479,14.9432,161.605
65,0.39811,0.124743,0.0327718,0.128976,14.7198,166.286
66,0.31623,0.130409,0.0333808,0.134613,14.3577,171.501
67,0.25119,0.135933,0.0339291,0.140104,14.0147,177.343
68,0.19953,0.14136,0.0336295,0.145306,13.3818,183.973
69,0.15849,0.146503,0.0334889,0.150282,12.8759,191.659
70,0.12589,0.151598,0.0334384,0.155242,12.4387,200.61
71,0.1,0.156871,0.0337065,0.160451,12.1266,211.196

File: LCO_2_Pristine_25C.txt
Index,Frequency (Hz),Z' (Ω),-Z'' (Ω),Z (Ω),-Phase (°),Time (s)
1,1000000,1.32685,-1.47299,1.98248,-47.988,14.4374
2,794330,0.956345,-1.34948,1.65399,-54.6757,17.7853
3,630960,0.701642,-1.17652,1.36986,-59.1894,21.0982
4,501190,0.512134,-1.00292,1.12611,-62.9492,24.443
5,398110,0.378918,-0.842189,0.923505,-65.7761,29.0503
6,316230,0.285384,-0.698839,0.754864,-67.7865,32.1407
7,251190,0.218932,-0.575676,0.615901,-69.178,35.2539
8,199530,0.174454,-0.473348,0.504472,-69.7685,36.9844
9,158490,0.141184,-0.388343,0.413211,-70.021,38.8106
10,125890,0.116854,-0.318161,0.338941,-69.8328,40.5622
11,100000,0.0986355,-0.260102,0.278176,-69.2323,43.879
12,79433,0.0850601,-0.212233,0.228644,-68.1598,45.508
13,63096,0.0748557,-0.172722,0.188245,-66.5687,47.3575
14,50119,0.0672289,-0.140173,0.155461,-64.3769,49.1847
15,39811,0.0616351,-0.113538,0.129189,-61.5043,51.0179
16,31623,0.0575355,-0.0916717,0.108231,-57.8865,52.7653
17,25119,0.0543099,-0.0735541,0.0914318,-53.5591,54.5973
18,19953,0.0521964,-0.0591108,0.0788578,-48.5547,56.4193
19,15849,0.050689,-0.0473861,0.0693889,-43.0711,58.2557
20,12589,0.0496619,-0.0379211,0.0624846,-37.3648,60.0054
21,10000,0.0488553,-0.0302274,0.0574503,-31.7456,63.1419
22,7943.3,0.0483386,-0.0239876,0.0539631,-26.3925,64.7668
23,6309.6,0.0480846,-0.0189857,0.051697,-21.5461,66.5073
24,5011.9,0.0476881,-0.0148584,0.0499492,-17.3057,68.3206
25,3981.1,0.0476478,-0.0116103,0.0490419,-13.6944,70.0477
26,3162.3,0.0476605,-0.00898294,0.0484996,-10.6738,71.762
27,2511.9,0.0477101,-0.00685301,0.0481998,-8.17397,73.5078
28,1995.3,0.0478346,-0.00511232,0.048107,-6.10033,75.244
29,1584.9,0.0479518,-0.00368941,0.0480935,-4.39966,76.9355
30,1258.9,0.0481314,-0.00253888,0.0481983,-3.01949,78.674
31,1000,0.0484691,-0.00153996,0.0484935,-1.81978,80.3906
32,794.33,0.0487183,-0.000802005,0.0487249,-0.943123,82.2172
33,630.96,0.0487786,-0.000213442,0.0487791,-0.250709,83.9229
34,501.19,0.0490785,0.000260313,0.0490792,0.303894,85.6786
35,398.11,0.0493662,0.000638268,0.0493703,0.740751,87.3893
36,316.23,0.0496786,0.000938214,0.0496875,1.08194,89.1061
37,251.19,0.0499945,0.00117685,0.0500083,1.34848,90.8779
38,199.53,0.0503195,0.00136148,0.0503379,1.54985,92.6104
39,158.49,0.0506436,0.00150842,0.050666,1.70605,94.3617
40,125.89,0.0509448,0.00162676,0.0509707,1.82894,96.1596
41,100,0.0512359,0.00173362,0.0512652,1.93792,97.9709
42,79.433,0.0515002,0.0018218,0.0515324,2.02597,99.7839
43,63.096,0.0517577,0.0019191,0.0517933,2.12348,101.653
44,50.119,0.0519906,0.00203517,0.0520304,2.24169,103.777
45,39.811,0.0522446,0.00218773,0.0522904,2.39785,105.727
46,31.623,0.0525105,0.00238273,0.0525646,2.59808,107.781
47,25.119,0.0527798,0.00262121,0.0528448,2.84315,109.854
48,19.953,0.0531082,0.00289742,0.0531872,3.12278,112.17
49,15.849,0.0535007,0.00322648,0.0535979,3.45117,114.536
50,12.589,0.0539587,0.00359487,0.0540784,3.81156,117.035
51,10,0.0544923,0.00398374,0.0546377,4.18126,119.726
52,7.9433,0.0551194,0.00437475,0.0552927,4.53797,122.46
53,6.3096,0.0558379,0.00475568,0.0560401,4.8681,125.28
54,5.0119,0.056676,0.00509017,0.0569041,5.13207,128.135
55,3.9811,0.0575622,0.00536752,0.0578119,5.32727,131.008
56,3.1623,0.0584704,0.00555678,0.0587339,5.42884,133.944
57,2.5119,0.0594821,0.00568173,0.0597528,5.45634,137
58,1.9953,0.0604171,0.00571954,0.0606872,5.40794,140.083
59,1.5849,0.0613652,0.00569436,0.0616289,5.30156,143.252
60,1.2589,0.0622335,0.00562451,0.0624872,5.16422,146.547
61,1,0.0630535,0.00551907,0.0632946,5.00234,150.219
62,0.79433,0.0638523,0.00543496,0.0640832,4.86515,153.898
63,0.63096,0.0646243,0.00536474,0.0648466,4.74549,157.777
64,0.50119,0.0652328,0.00535032,0.0654519,4.68884,162.027
65,0.39811,0.0659008,0.00535477,0.066118,4.64536,166.718
66,0.31623,0.0665225,0.00546067,0.0667463,4.69274,171.91
67,0.25119,0.0671013,0.00566639,0.0673401,4.8269,177.709
68,0.19953,0.0677269,0.00590203,0.0679836,4.98044,184.323
69,0.15849,0.068329,0.00629884,0.0686187,5.26687,192.013
70,0.12589,0.0688921,0.00683285,0.0692301,5.66418,200.963
71,0.1,0.0695835,0.00758798,0.069996,6.22342,211.57

File: LCO_2_Pristine_35C.txt
Index,Frequency (Hz),Z' (Ω),-Z'' (Ω),Z (Ω),-Phase (°),Time (s)
1,1000000,1.33092,-1.49399,2.00084,-48.3038,19.023
2,794330,0.954204,-1.36727,1.66732,-55.0893,22.3296
3,630960,0.6953,-1.1912,1.37928,-59.728,25.6763
4,501190,0.503092,-1.01442,1.13232,-63.6213,28.9961
5,398110,0.367859,-0.84814,0.924479,-66.5525,32.2479
6,316230,0.274399,-0.70088,0.75268,-68.6193,36.6871
7,251190,0.208927,-0.572865,0.609774,-69.9628,38.323
8,199530,0.166744,-0.467869,0.496694,-70.3844,40.1258
9,158490,0.136326,-0.38078,0.404447,-70.3018,41.9328
10,125890,0.114953,-0.309475,0.330135,-69.6228,43.65
11,100000,0.099598,-0.251526,0.270528,-68.3977,46.8511
12,79433,0.0883761,-0.20442,0.222706,-66.6199,48.4721
13,63096,0.0799207,-0.166157,0.184379,-64.3127,50.3103
14,50119,0.0734542,-0.135056,0.153739,-61.4591,52.1325
15,39811,0.0684189,-0.109591,0.129195,-58.0231,53.945
16,31623,0.0645559,-0.0887714,0.109763,-53.9748,55.6817
17,25119,0.061346,-0.0714622,0.0941816,-49.3559,57.5029
18,19953,0.0591762,-0.0575967,0.0825785,-44.2251,59.3153
19,15849,0.0575859,-0.0462868,0.0738823,-38.7919,61.0418
20,12589,0.0564867,-0.0371225,0.0675931,-33.3125,62.7957
21,10000,0.0556402,-0.0296344,0.06304,-28.0401,65.9103
22,7943.3,0.0551358,-0.0235911,0.0599708,-23.1647,67.534
23,6309.6,0.0548105,-0.01871,0.0579159,-18.8477,69.2981
24,5011.9,0.0543317,-0.0146997,0.0562851,-15.1392,71.0241
25,3981.1,0.0542951,-0.0115602,0.0555121,-12.0197,72.7341
26,3162.3,0.0542734,-0.00902129,0.0550181,-9.43738,74.4603
27,2511.9,0.0543299,-0.00697055,0.0547753,-7.31112,76.1872
28,1995.3,0.0543341,-0.0053003,0.054592,-5.57159,77.9177
29,1584.9,0.054452,-0.00396245,0.054596,-4.16205,79.5841
30,1258.9,0.0545446,-0.00288472,0.0546208,-3.02741,81.3231
31,1000,0.054835,-0.00197343,0.0548705,-2.06109,83.0475
32,794.33,0.0550202,-0.00129765,0.0550355,-1.35107,84.8492
33,630.96,0.054969,-0.000762135,0.0549743,-0.794343,86.6054
34,501.19,0.0551465,-0.000334923,0.0551475,-0.347972,88.3633
35,398.11,0.0553415,2.25115e-06,0.0553415,0.00233064,90.0654
36,316.23,0.055539,0.000269232,0.0555396,0.277747,91.7882
37,251.19,0.0557354,0.000479564,0.0557375,0.492977,93.5547
38,199.53,0.0559687,0.0006475,0.0559724,0.662824,95.2719
39,158.49,0.0562109,0.000783139,0.0562164,0.798202,97.0185
40,125.89,0.0564069,0.000902007,0.0564141,0.916143,98.835
41,100,0.0565943,0.00101871,0.0566035,1.03123,100.646
42,79.433,0.0567696,0.00111998,0.0567806,1.13021,102.458
43,63.096,0.0569491,0.00123146,0.0569625,1.23876,104.329
44,50.119,0.0571288,0.00135267,0.0571448,1.35637,106.445
45,39.811,0.0572667,0.00149189,0.0572861,1.49231,108.393
46,31.623,0.0574986,0.00164448,0.0575221,1.63824,110.426
47,25.119,0.0577484,0.00180815,0.0577767,1.79339,112.501
48,19.953,0.0580565,0.00196171,0.0580897,1.93527,114.803
49,15.849,0.0583731,0.00211269,0.0584113,2.0728,117.155
50,12.589,0.0587621,0.00225575,0.0588054,2.19838,119.647
51,10,0.059158,0.00236494,0.0592053,2.28927,122.34
52,7.9433,0.0595397,0.0024456,0.0595899,2.35211,125.055
53,6.3096,0.0601224,0.00249181,0.060174,2.3733,127.876
54,5.0119,0.0604951,0.00250855,0.0605471,2.37452,130.651
55,3.9811,0.0608993,0.00250022,0.0609506,2.35096,133.523
56,3.1623,0.0613132,0.00247248,0.0613631,2.30922,136.425
57,2.5119,0.0616351,0.00243732,0.0616833,2.26454,139.412
58,1.9953,0.061994,0.0024075,0.0620407,2.22393,142.495
59,1.5849,0.0623262,0.00238024,0.0623716,2.18706,145.705
60,1.2589,0.0626222,0.00237582,0.0626673,2.1727,149.019
61,1,0.0629158,0.00239569,0.0629614,2.18064,152.699
62,0.79433,0.0632062,0.00244367,0.0632534,2.21405,156.337
63,0.63096,0.0634335,0.00253816,0.0634842,2.29135,160.212
64,0.50119,0.0637016,0.00270667,0.0637591,2.43302,164.496
65,0.39811,0.0639803,0.00289681,0.0640458,2.59239,169.176
66,0.31623,0.0642915,0.00314721,0.0643685,2.80252,174.367
67,0.25119,0.0646102,0.00350006,0.064705,3.10079,180.234
68,0.19953,0.0649621,0.00381546,0.0650741,3.36133,186.902
69,0.15849,0.0652785,0.00429711,0.0654198,3.76619,194.578
70,0.12589,0.0656996,0.00486086,0.0658791,4.23138,203.587
71,0.1,0.0662278,0.00549871,0.0664557,4.74623,214.188

File: LCO_2_Pristine_45C.txt
Index,Frequency (Hz),Z' (Ω),-Z'' (Ω),Z (Ω),-Phase (°),Time (s)
1,1000000,1.41811,-1.61213,2.1471,-48.6635,19.121
2,794330,1.01322,-1.47317,1.78797,-55.4804,22.4475
3,630960,0.734308,-1.28449,1.47957,-60.2447,25.7556
4,501190,0.526785,-1.09334,1.21363,-64.2747,29.0811
5,398110,0.38128,-0.914181,0.990506,-67.3603,32.2975
6,316230,0.28043,-0.75456,0.804986,-69.6125,36.7039
7,251190,0.210182,-0.616438,0.651285,-71.1726,38.344
8,199530,0.16489,-0.502898,0.52924,-71.8468,40.1888
9,158490,0.132392,-0.408676,0.429585,-72.0501,41.9907
10,125890,0.109656,-0.331587,0.349249,-71.7009,43.7016
11,100000,0.0935945,-0.268874,0.284698,-70.8071,46.971
12,79433,0.0819094,-0.217771,0.232666,-69.3874,48.5954
13,63096,0.0733561,-0.176257,0.190912,-67.4035,50.4076
14,50119,0.0670026,-0.142623,0.157578,-64.8364,52.2896
15,39811,0.0622717,-0.115285,0.131028,-61.6241,54.0251
16,31623,0.0587397,-0.0930416,0.110032,-57.7347,55.7403
17,25119,0.055852,-0.0746751,0.0932514,-53.2059,57.5483
18,19953,0.0539539,-0.0600615,0.0807366,-48.0663,59.4223
19,15849,0.0525878,-0.048236,0.0713595,-42.5285,61.2389
20,12589,0.0515561,-0.0386416,0.0644298,-36.8518,63.0466
21,10000,0.0507692,-0.0308731,0.0594193,-31.3041,66.2296
22,7943.3,0.0502795,-0.0246062,0.0559776,-26.0765,67.8655
23,6309.6,0.049975,-0.0195657,0.0536686,-21.3808,69.5831
24,5011.9,0.0495099,-0.0154283,0.0518581,-17.3081,71.4609
25,3981.1,0.0494345,-0.0121926,0.0509159,-13.855,73.1709
26,3162.3,0.0493944,-0.00958713,0.0503162,-10.9842,74.8683
27,2511.9,0.0493621,-0.00748423,0.0499262,-8.62147,76.6858
28,1995.3,0.0494086,-0.0057833,0.049746,-6.67611,78.4306
29,1584.9,0.0494493,-0.00440921,0.0496455,-5.09538,80.017
30,1258.9,0.0495095,-0.0033091,0.0496199,-3.82384,81.7129
31,1000,0.04973,-0.00236517,0.0497862,-2.72295,83.4529
32,794.33,0.0498565,-0.00167545,0.0498846,-1.92472,85.2708
33,630.96,0.0497601,-0.0011307,0.0497729,-1.3017,86.9733
34,501.19,0.049909,-0.000698668,0.0499139,-0.802022,88.7054
35,398.11,0.0500499,-0.000359478,0.0500512,-0.411514,90.4474
36,316.23,0.0502351,-8.95064e-05,0.0502352,-0.102087,92.169
37,251.19,0.0503668,0.00012311,0.0503669,0.140046,93.9205
38,199.53,0.0505157,0.000293667,0.0505166,0.333078,95.6422
39,158.49,0.0506722,0.000439726,0.0506741,0.497192,97.4154
40,125.89,0.0508182,0.000564475,0.0508213,0.6364,99.1973
41,100,0.0509721,0.000690235,0.0509768,0.775819,100.968
42,79.433,0.0511071,0.000790962,0.0511133,0.88667,102.823
43,63.096,0.051261,0.000890879,0.0512687,0.995659,104.685
44,50.119,0.051379,0.000987922,0.0513885,1.10156,106.758
45,39.811,0.0515526,0.00108048,0.0515639,1.20068,108.704
46,31.623,0.0517519,0.00116829,0.0517651,1.29322,110.748
47,25.119,0.0519497,0.00124223,0.0519645,1.3698,112.813
48,19.953,0.0521312,0.00128935,0.0521471,1.4168,115.114
49,15.849,0.0523752,0.00132495,0.0523919,1.44912,117.456
50,12.589,0.0526149,0.00134412,0.0526321,1.46338,119.915
51,10,0.0528308,0.00134713,0.052848,1.46066,122.641
52,7.9433,0.0530415,0.00133634,0.0530583,1.44322,125.35
53,6.3096,0.0532169,0.00131844,0.0532332,1.4192,128.164
54,5.0119,0.0534443,0.00129999,0.0534601,1.3934,130.939
55,3.9811,0.0536047,0.00128216,0.0536201,1.37018,133.744
56,3.1623,0.0537504,0.00127368,0.0537655,1.35744,136.703
57,2.5119,0.0538746,0.00127778,0.0538897,1.35867,139.696
58,1.9953,0.054045,0.00129735,0.0540606,1.37512,142.817
59,1.5849,0.0541672,0.00133514,0.0541837,1.41197,146.001
60,1.2589,0.0543116,0.0014004,0.0543297,1.47701,149.323
61,1,0.0544434,0.00148484,0.0544636,1.56225,152.971
62,0.79433,0.0546148,0.00159789,0.0546382,1.67585,156.608
63,0.63096,0.0547695,0.00174902,0.0547974,1.82907,160.523
64,0.50119,0.0549386,0.00196009,0.0549735,2.04332,164.79
65,0.39811,0.0551275,0.00218138,0.0551706,2.26599,169.467
66,0.31623,0.0553221,0.00244471,0.0553761,2.53029,174.66
67,0.25119,0.0555737,0.00279434,0.0556439,2.8785,180.512
68,0.19953,0.0558569,0.00310367,0.0559431,3.18035,187.134
69,0.15849,0.0560764,0.00355501,0.056189,3.62746,194.842
70,0.12589,0.0563696,0.00408207,0.0565172,4.1419,203.823
71,0.1,0.0567809,0.00467504,0.056973,4.70681,214.394

File: LCO_3_Pristine_5C.txt
Index,Frequency (Hz),Z' (Ω),-Z'' (Ω),Z (Ω),-Phase (°),Time (s)
1,1000000,1.30991,-1.49764,1.98967,-48.8256,14.4259
2,794330,0.937456,-1.36772,1.65815,-55.5726,16.2522
3,630960,0.68024,-1.18619,1.3674,-60.1672,19.6625
4,501190,0.491307,-1.00713,1.12058,-63.9956,22.9807
5,398110,0.358935,-0.840106,0.913571,-66.8654,26.2012
6,316230,0.268002,-0.693431,0.743419,-68.8691,30.698
7,251190,0.204297,-0.5662,0.60193,-70.1595,33.8329
8,199530,0.163455,-0.461815,0.489888,-70.5091,35.5512
9,158490,0.133966,-0.375432,0.398618,-70.362,37.3822
10,125890,0.11324,-0.304622,0.32499,-69.6079,39.0835
11,100000,0.0985203,-0.247422,0.266316,-68.2882,42.3962
12,79433,0.0877543,-0.200766,0.219107,-66.39,44.1541
13,63096,0.0797051,-0.162784,0.181249,-63.9118,45.9761
14,50119,0.0736122,-0.131901,0.151052,-60.8347,47.7952
15,39811,0.068962,-0.106688,0.127035,-57.1217,49.6229
16,31623,0.0654846,-0.086131,0.108198,-52.7546,51.3699
17,25119,0.06257,-0.0690537,0.0931848,-47.8201,53.1911
18,19953,0.0606771,-0.0554451,0.0821941,-42.4202,55.0036
19,15849,0.0593709,-0.0444237,0.074151,-36.8053,56.7555
20,12589,0.0583921,-0.0354367,0.0683038,-31.2525,58.5064
21,10000,0.0576978,-0.0281492,0.0641982,-26.0065,61.7237
22,7943.3,0.0572769,-0.022232,0.0614402,-21.2137,63.361
23,6309.6,0.0571362,-0.0174717,0.0597478,-17.0031,65.0869
24,5011.9,0.0567344,-0.0135136,0.0583216,-13.3977,66.8218
25,3981.1,0.0567565,-0.0103734,0.0576967,-10.3576,68.5524
26,3162.3,0.0568501,-0.00781085,0.0573841,-7.82311,70.3054
27,2511.9,0.0569286,-0.00568663,0.0572119,-5.70439,72.1258
28,1995.3,0.0571332,-0.00393071,0.0572682,-3.9357,73.847
29,1584.9,0.0573367,-0.00246389,0.0573896,-2.46062,75.5434
30,1258.9,0.0576033,-0.00123367,0.0576165,-1.2269,77.2606
31,1000,0.0580983,-0.000143121,0.0580985,-0.141144,78.9864
32,794.33,0.0584833,0.000734251,0.0584879,0.719304,80.8219
33,630.96,0.0587342,0.00147757,0.0587528,1.44108,82.5547
34,501.19,0.0592107,0.00213347,0.0592491,2.06358,84.2907
35,398.11,0.0597783,0.00270898,0.0598397,2.5947,85.9953
36,316.23,0.0604036,0.00321841,0.0604893,3.04994,87.7247
37,251.19,0.0610556,0.00366658,0.0611656,3.43666,89.5023
38,199.53,0.0617469,0.00406779,0.0618808,3.76911,91.2311
39,158.49,0.0624707,0.00442313,0.062627,4.04997,92.9868
40,125.89,0.0632385,0.00473669,0.0634157,4.28357,94.788
41,100,0.0640206,0.00501889,0.0642171,4.48253,96.606
42,79.433,0.0648413,0.00525527,0.065054,4.63359,98.4326
43,63.096,0.0656685,0.00546723,0.0658957,4.75918,100.292
44,50.119,0.066449,0.00566528,0.0666901,4.87312,102.411
45,39.811,0.0672434,0.00587338,0.0674994,4.99183,104.369
46,31.623,0.0680004,0.00609699,0.0682732,5.1235,106.41
47,25.119,0.0688028,0.00637154,0.0690972,5.29083,108.5
48,19.953,0.0695656,0.00669259,0.0698868,5.49526,110.784
49,15.849,0.070338,0.0071222,0.0706977,5.78188,113.14
50,12.589,0.071124,0.00768003,0.0715374,6.16297,115.643
51,10,0.0719165,0.00838185,0.0724033,6.64781,118.357
52,7.9433,0.0728276,0.00927704,0.0734161,7.25945,121.067
53,6.3096,0.0738397,0.0103817,0.074566,8.00322,123.891
54,5.0119,0.0749767,0.0117182,0.075887,8.88299,126.689
55,3.9811,0.0763228,0.0132949,0.0774721,9.8814,129.523
56,3.1623,0.0780244,0.015131,0.079478,10.975,132.462
57,2.5119,0.0800527,0.0171936,0.0818783,12.1218,135.491
58,1.9953,0.0824528,0.0194261,0.0847103,13.2572,138.562
59,1.5849,0.0854537,0.0217833,0.0881864,14.3009,141.703
60,1.2589,0.0889255,0.0241464,0.0921455,15.1915,145.02
61,1,0.0929591,0.0264346,0.0966446,15.874,148.715
62,0.79433,0.0974592,0.0285074,0.101543,16.3045,152.368
63,0.63096,0.102899,0.0304607,0.107313,16.4901,156.256
64,0.50119,0.108173,0.0318477,0.112764,16.4052,160.544
65,0.39811,0.113783,0.0329938,0.118471,16.1706,165.159
66,0.31623,0.119452,0.0337457,0.124127,15.7752,170.308
67,0.25119,0.125026,0.0339498,0.129553,15.1919,176.097
68,0.19953,0.130634,0.034039,0.134996,14.6047,182.705
69,0.15849,0.136269,0.0342029,0.140496,14.0899,190.426
70,0.12589,0.141131,0.033882,0.145142,13.4997,199.387
71,0.1,0.14613,0.0341037,0.150056,13.1366,209.998