Folder: ECSHackWeek_Dallas/tutorials/data/eis (part 8)

File: NCA_3_Pristine_35C.txt
Index,Frequency (Hz),Z' (Ω),-Z'' (Ω),Z (Ω),-Phase (°),Time (s)
1,1000000,1.38434,-1.39213,1.96327,-45.1607,19.0091
2,794330,1.03022,-1.29908,1.658,-51.5842,20.8477
3,630960,0.775978,-1.15475,1.39126,-56.0995,24.2994
4,501190,0.578346,-1.00072,1.15582,-59.9751,27.6362
5,398110,0.434299,-0.849717,0.954272,-62.928,32.316
6,316230,0.331408,-0.711204,0.784628,-65.0154,35.4555
7,251190,0.257365,-0.589006,0.642779,-66.3972,38.5714
8,199530,0.20771,-0.486118,0.528634,-66.8638,40.2924
9,158490,0.170723,-0.399853,0.434774,-66.8793,42.1723
10,125890,0.143741,-0.327922,0.358042,-66.3303,43.8887
11,100000,0.123929,-0.268659,0.295865,-65.2368,47.1833
12,79433,0.109216,-0.219502,0.245172,-63.5468,48.8438
13,63096,0.0982349,-0.179074,0.204248,-61.252,50.6498
14,50119,0.0900248,-0.145946,0.171478,-58.3323,52.4668
15,39811,0.0837782,-0.118702,0.14529,-54.7862,54.3294
16,31623,0.0791188,-0.0965315,0.124812,-50.6614,56.1438
17,25119,0.0754866,-0.078315,0.108773,-46.0535,57.8658
18,19953,0.0723529,-0.0631698,0.0960488,-41.1235,59.5928
19,15849,0.0702483,-0.0510183,0.0868198,-35.9893,61.3505
20,12589,0.0686182,-0.0410111,0.0799398,-30.8655,63.0817
21,10000,0.0675001,-0.0327987,0.0750467,-25.9154,66.2963
22,7943.3,0.0667369,-0.0260708,0.0716484,-21.3382,67.9415
23,6309.6,0.06629,-0.0205807,0.0694113,-17.2477,69.678
24,5011.9,0.0657129,-0.0160221,0.067638,-13.7025,71.4956
25,3981.1,0.0656439,-0.0124022,0.0668052,-10.6988,73.2581
26,3162.3,0.0656343,-0.00944736,0.0663108,-8.19085,74.9709
27,2511.9,0.0657624,-0.00703988,0.0661381,-6.11025,76.7031
28,1995.3,0.0659212,-0.00508434,0.066117,-4.41035,78.4146
29,1584.9,0.0661551,-0.00350294,0.0662478,-3.031,80.1299
30,1258.9,0.0664084,-0.00222487,0.0664456,-1.91885,81.8253
31,1000,0.0669427,-0.00114251,0.0669525,-0.977769,83.547
32,794.33,0.0673009,-0.000324142,0.0673016,-0.275952,85.3547
33,630.96,0.0676518,0.000333227,0.0676526,0.282215,87.1031
34,501.19,0.0677254,0.000853289,0.0677308,0.721846,88.8393
35,398.11,0.0681673,0.00128302,0.0681794,1.07827,90.4478
36,316.23,0.0685567,0.00163452,0.0685762,1.36578,92.1906
37,251.19,0.0689833,0.00192669,0.0690102,1.59984,93.9771
38,199.53,0.0694278,0.00217315,0.0694618,1.79282,95.709
39,158.49,0.0698517,0.00238719,0.0698925,1.95733,97.4666
40,125.89,0.0703347,0.00257429,0.0703818,2.09613,99.2996
41,100,0.0707529,0.00273644,0.0708058,2.21486,101.073
42,79.433,0.0712024,0.00286135,0.0712599,2.30126,102.879
43,63.096,0.0716907,0.00296316,0.0717519,2.36683,104.762
44,50.119,0.0721099,0.00304875,0.0721743,2.42098,106.842
45,39.811,0.0725838,0.00312798,0.0726512,2.46762,108.796
46,31.623,0.0729709,0.00321008,0.0730415,2.51889,110.841
47,25.119,0.0733654,0.00331233,0.0734401,2.58506,112.923
48,19.953,0.0737437,0.00343921,0.0738238,2.67019,115.229
49,15.849,0.0741482,0.00363192,0.0742371,2.80422,117.569
50,12.589,0.0744971,0.00389709,0.074599,2.99452,120.039
51,10,0.0748258,0.00425844,0.0749469,3.25726,122.734
52,7.9433,0.0752033,0.00474001,0.0753526,3.60654,125.48
53,6.3096,0.0756298,0.00536795,0.07582,4.05986,128.28
54,5.0119,0.0760717,0.00615632,0.0763204,4.62674,131.097
55,3.9811,0.0766419,0.00713596,0.0769734,5.31934,133.937
56,3.1623,0.07734,0.00831577,0.0777858,6.13699,136.886
57,2.5119,0.0782648,0.00973303,0.0788677,7.08892,139.891
58,1.9953,0.0794201,0.0113665,0.0802294,8.1448,142.949
59,1.5849,0.0809238,0.0132011,0.0819934,9.26508,146.137
60,1.2589,0.0827945,0.0152035,0.0841788,10.4053,149.446
61,1,0.0851781,0.0172556,0.0869083,11.4521,153.147
62,0.79433,0.0881008,0.0192964,0.0901892,12.3542,156.799
63,0.63096,0.0916002,0.0211615,0.0940128,13.0083,160.678
64,0.50119,0.0955107,0.0226395,0.0981572,13.335,164.936
65,0.39811,0.0998056,0.0236885,0.102578,13.3519,169.689
66,0.31623,0.104789,0.0242969,0.107569,13.0542,174.869
67,0.25119,0.109197,0.0240854,0.111822,12.4385,180.66
68,0.19953,0.113417,0.0235728,0.115841,11.7413,187.273
69,0.15849,0.11728,0.0227775,0.119472,10.9908,194.944
70,0.12589,0.12062,0.021654,0.122548,10.1775,203.89
71,0.1,0.123547,0.0207539,0.125278,9.53569,214.552

File: NMC_1_Pristine_5C.txt
Index,Frequency (Hz),Z' (Ω),-Z'' (Ω),Z (Ω),-Phase (°),Time (s)
1,1000000,1.2603,-1.47843,1.9427,-49.5538,14.4018
2,794330,0.896437,-1.34496,1.61633,-56.3159,16.2488
3,630960,0.647046,-1.1636,1.33141,-60.9228,19.6383
4,501190,0.464187,-0.986575,1.09032,-64.8029,22.967
5,398110,0.336339,-0.821982,0.888132,-67.7466,27.6267
6,316230,0.248582,-0.676999,0.721194,-69.8377,30.7303
7,251190,0.187654,-0.552324,0.583331,-71.2346,33.8768
8,199530,0.148629,-0.450293,0.474188,-71.7334,35.6028
9,158490,0.120601,-0.366394,0.385732,-71.7806,37.4225
10,125890,0.10076,-0.297673,0.314264,-71.2994,39.1418
11,100000,0.0863852,-0.242124,0.257073,-70.3646,42.4797
12,79433,0.0757264,-0.197119,0.211164,-68.9849,44.2005
13,63096,0.0674698,-0.160304,0.173924,-67.1745,46.0284
14,50119,0.0611029,-0.130392,0.143998,-64.8917,47.8564
15,39811,0.0561241,-0.105787,0.119753,-62.0523,49.6833
16,31623,0.0522816,-0.0855053,0.100222,-58.5566,51.4043
17,25119,0.0492363,-0.0686935,0.0845163,-54.3688,53.247
18,19953,0.0471602,-0.0551244,0.072545,-49.4522,54.9862
19,15849,0.0457216,-0.0440597,0.0634959,-43.9396,56.7207
20,12589,0.0447179,-0.0350115,0.0567934,-38.0589,58.4408
21,10000,0.0439602,-0.0276433,0.0519293,-32.1627,61.5793
22,7943.3,0.043605,-0.021625,0.0486728,-26.3782,63.1989
23,6309.6,0.04345,-0.0167246,0.0465576,-21.0526,64.9251
24,5011.9,0.0432604,-0.0126767,0.0450795,-16.3323,66.6697
25,3981.1,0.0434197,-0.00943939,0.0444339,-12.2652,68.3709
26,3162.3,0.0436408,-0.00677917,0.0441642,-8.82976,70.0794
27,2511.9,0.043943,-0.00458761,0.0441818,-5.96004,71.8004
28,1995.3,0.0442933,-0.00275614,0.044379,-3.56062,73.5459
29,1584.9,0.0446954,-0.00121534,0.0447119,-1.55758,75.2285
30,1258.9,0.0452045,8.57922e-05,0.0452046,0.10874,76.9285
31,1000,0.0458477,0.00127851,0.0458656,1.59734,78.7125
32,794.33,0.0464753,0.00222256,0.0465284,2.73793,80.5396
33,630.96,0.0469741,0.00302816,0.0470716,3.68844,82.2552
34,501.19,0.0477292,0.00375303,0.0478765,4.49601,83.9809
35,398.11,0.0485186,0.00439486,0.0487172,5.17578,85.7073
36,316.23,0.0494083,0.00497139,0.0496578,5.74568,87.4266
37,251.19,0.0503418,0.00548505,0.0506398,6.2182,89.1683
38,199.53,0.0513402,0.00594367,0.0516831,6.60375,90.8919
39,158.49,0.0523847,0.00634378,0.0527674,6.90489,92.6516
40,125.89,0.0535027,0.00669485,0.05392,7.13241,94.438
41,100,0.0546367,0.00699524,0.0550827,7.296,96.2145
42,79.433,0.0558011,0.0072223,0.0562665,7.37476,98.0598
43,63.096,0.0569865,0.00738907,0.0574635,7.38796,99.9261
44,50.119,0.0581899,0.00750264,0.0586716,7.34683,102.004
45,39.811,0.0593413,0.00755863,0.0598207,7.25899,103.946
46,31.623,0.0604882,0.00758358,0.0609617,7.14606,105.997
47,25.119,0.0615505,0.00759644,0.0620174,7.03575,108.068
48,19.953,0.0625483,0.00761958,0.0630107,6.9455,110.358
49,15.849,0.0635367,0.00772305,0.0640044,6.93045,112.742
50,12.589,0.064378,0.0079251,0.064864,7.01795,115.204
51,10,0.0651963,0.0082841,0.0657205,7.24142,117.919
52,7.9433,0.0660323,0.00883293,0.0666205,7.61904,120.625
53,6.3096,0.0668969,0.00961024,0.0675837,8.17503,123.439
54,5.0119,0.067827,0.0106516,0.0686583,8.92487,126.28
55,3.9811,0.0688979,0.0119836,0.0699323,9.86689,129.095
56,3.1623,0.0701622,0.0136192,0.0714718,10.9851,132.059
57,2.5119,0.0717247,0.0155925,0.0734,12.2649,134.995
58,1.9953,0.0736999,0.0178857,0.0758392,13.641,138.141
59,1.5849,0.0761663,0.020441,0.0788615,15.0227,141.311
60,1.2589,0.0792119,0.0232192,0.0825449,16.3373,144.678
61,1,0.0829707,0.0260309,0.0869583,17.4185,148.333
62,0.79433,0.0874341,0.0287904,0.0920522,18.2257,152.002
63,0.63096,0.0925703,0.031216,0.0976919,18.6348,155.867
64,0.50119,0.0982285,0.0332416,0.103701,18.6964,160.107
65,0.39811,0.104944,0.0347402,0.110545,18.3164,164.788
66,0.31623,0.111282,0.0355026,0.116808,17.6945,169.967
67,0.25119,0.11747,0.0357496,0.122789,16.9266,175.825
68,0.19953,0.123812,0.0354429,0.128785,15.9745,182.476
69,0.15849,0.129452,0.0347932,0.134046,15.0441,190.106
70,0.12589,0.134844,0.0341597,0.139103,14.2156,199.087
71,0.1,0.139953,0.034001,0.144024,13.6552,209.672

File: NMC_1_Pristine_15C.txt
Index,Frequency (Hz),Z' (Ω),-Z'' (Ω),Z (Ω),-Phase (°),Time (s)
1,1000000,1.12668,-1.28723,1.71067,-48.8053,14.4305
2,794330,0.804365,-1.17499,1.42394,-55.6056,16.2839
3,630960,0.584306,-1.01865,1.17434,-60.1611,18.0888
4,501190,0.421654,-0.864565,0.961907,-64.0012,21.5035
5,398110,0.307999,-0.721627,0.784607,-66.8866,26.164
6,316230,0.229502,-0.594442,0.637207,-68.8894,30.5997
7,251190,0.175074,-0.485123,0.515748,-70.1562,33.7253
8,199530,0.140203,-0.395008,0.419152,-70.4583,35.4606
9,158490,0.115276,-0.320689,0.340779,-70.2283,37.3259
10,125890,0.0979672,-0.259959,0.277806,-69.3508,39.0544
11,100000,0.0855835,-0.21051,0.227242,-67.8756,42.3574
12,79433,0.0767442,-0.170464,0.186942,-65.7623,44.0873
13,63096,0.0702188,-0.137942,0.154786,-63.0218,45.9079
14,50119,0.0653642,-0.111532,0.129274,-59.6273,47.7388
15,39811,0.0617142,-0.0900664,0.109182,-55.5808,49.5611
16,31623,0.0586777,-0.0722821,0.0931009,-50.9307,51.344
17,25119,0.0566571,-0.0581195,0.0811659,-45.73,53.0763
18,19953,0.0551754,-0.0465861,0.0722121,-40.1753,54.802
19,15849,0.0541137,-0.0372037,0.0656689,-34.5089,56.6331
20,12589,0.0533811,-0.029585,0.0610313,-28.9962,58.3725
21,10000,0.0528135,-0.023342,0.0577418,-23.8441,61.5165
22,7943.3,0.0525628,-0.018299,0.055657,-19.1949,63.1692
23,6309.6,0.0524886,-0.0142059,0.054377,-15.1441,64.9125
24,5011.9,0.0521898,-0.0108045,0.0532965,-11.6964,66.736
25,3981.1,0.0523315,-0.00810436,0.0529554,-8.80322,68.4431
26,3162.3,0.0525418,-0.00589734,0.0528717,-6.40413,70.166
27,2511.9,0.0527451,-0.00407235,0.0529021,-4.41494,71.9065
28,1995.3,0.0530294,-0.00256099,0.0530913,-2.76488,73.6159
29,1584.9,0.0533308,-0.00130686,0.0533468,-1.40374,75.2977
30,1258.9,0.0537285,-0.000267447,0.0537292,-0.285201,77.0391
31,1000,0.0543106,0.000656214,0.0543146,0.692249,78.7537
32,794.33,0.0547964,0.00137374,0.0548136,1.4361,80.5818
33,630.96,0.0550804,0.00195902,0.0551152,2.03696,82.2885
34,501.19,0.0556405,0.00246218,0.0556949,2.53378,84.0617
35,398.11,0.0562324,0.0028814,0.0563061,2.93332,85.7605
36,316.23,0.0568812,0.00322953,0.0569728,3.24957,87.4711
37,251.19,0.0575215,0.0035096,0.0576284,3.4915,89.2183
38,199.53,0.0581869,0.00373051,0.0583064,3.66835,90.9437
39,158.49,0.0588864,0.0039015,0.0590155,3.79057,92.6989
40,125.89,0.0595733,0.00402552,0.0597091,3.86575,94.5048
41,100,0.0602582,0.00411811,0.0603988,3.90958,96.313
42,79.433,0.0609325,0.00416191,0.0610744,3.90745,98.1308
43,63.096,0.0615733,0.00418167,0.0617152,3.8852,100.003
44,50.119,0.06218,0.00418487,0.0623206,3.85035,102.102
45,39.811,0.0627304,0.00419451,0.0628705,3.82543,104.051
46,31.623,0.0632661,0.00422559,0.063407,3.82116,106.085
47,25.119,0.0637872,0.00430297,0.0639322,3.85923,108.16
48,19.953,0.0642477,0.00442481,0.0643998,3.93981,110.47
49,15.849,0.0647412,0.00465058,0.064908,4.10869,112.821
50,12.589,0.0651972,0.00498372,0.0653874,4.37122,115.299
51,10,0.0656785,0.00543962,0.0659034,4.73454,117.988
52,7.9433,0.0662521,0.00603431,0.0665263,5.2042,120.698
53,6.3096,0.0669656,0.00677466,0.0673074,5.77675,123.531
54,5.0119,0.0677516,0.00765855,0.0681831,6.44926,126.317
55,3.9811,0.0687599,0.00866882,0.0693042,7.18559,129.179
56,3.1623,0.0699932,0.00978602,0.070674,7.95914,132.12
57,2.5119,0.0715252,0.0109513,0.0723587,8.70502,135.133
58,1.9953,0.0733533,0.012104,0.0743452,9.36991,138.267
59,1.5849,0.0754518,0.0131504,0.0765892,9.88668,141.425
60,1.2589,0.077796,0.0140191,0.0790491,10.2153,144.755
61,1,0.0803487,0.0146252,0.0816689,10.3161,148.435
62,0.79433,0.0830342,0.0149643,0.0843719,10.2161,152.084
63,0.63096,0.0856143,0.0150393,0.0869251,9.9631,156.018
64,0.50119,0.0881219,0.0149531,0.0893816,9.6306,160.306
65,0.39811,0.090466,0.0146524,0.0916449,9.20008,164.907
66,0.31623,0.0926809,0.0143552,0.0937861,8.80446,170.07
67,0.25119,0.0946391,0.0141526,0.0956914,8.50517,175.862
68,0.19953,0.0964639,0.0138862,0.0974583,8.1916,182.455
69,0.15849,0.0982055,0.013851,0.0991775,8.02811,190.132
70,0.12589,0.0998455,0.0141031,0.100837,8.03981,199.142
71,0.1,0.101555,0.0144436,0.102577,8.09456,209.756

File: NMC_1_Pristine_25C.txt
Index,Frequency (Hz),Z' (Ω),-Z'' (Ω),Z (Ω),-Phase (°),Time (s)
1,1000000,1.26506,-1.46232,1.93359,-49.1368,30.7171
2,794330,0.901348,-1.33342,1.60948,-55.9426,32.5398
3,630960,0.652147,-1.15686,1.32801,-60.589,35.9477
4,501190,0.468395,-0.982433,1.08838,-64.5096,39.2642
5,398110,0.339615,-0.81938,0.886973,-67.4871,43.906
6,316230,0.251123,-0.67503,0.720228,-69.5939,47.0401
7,251190,0.189747,-0.550914,0.582675,-70.9952,50.1517
8,199530,0.150385,-0.448769,0.473297,-71.4737,51.8742
9,158490,0.12223,-0.364571,0.384516,-71.4653,53.7023
10,125890,0.102595,-0.295983,0.313259,-70.8824,55.405
11,100000,0.0885187,-0.240357,0.256139,-69.7823,58.626
12,79433,0.078152,-0.195129,0.210198,-68.1732,60.2959
13,63096,0.0703839,-0.158631,0.173545,-66.0733,62.1125
14,50119,0.0643147,-0.128803,0.143968,-63.4659,63.9408
15,39811,0.0596313,-0.104554,0.120363,-60.3021,65.7684
16,31623,0.0559737,-0.0846445,0.101478,-56.5241,67.5163
17,25119,0.052952,-0.0680944,0.0862599,-52.1304,69.2422
18,19953,0.0509258,-0.0548488,0.0748454,-47.1241,71.075
19,15849,0.0494405,-0.043999,0.0661836,-41.6671,72.9183
20,12589,0.0484005,-0.0351697,0.0598291,-36.0036,74.7362
21,10000,0.0475995,-0.0279702,0.0552091,-30.4392,77.951
22,7943.3,0.0471277,-0.0221056,0.0520546,-25.1293,79.6555
23,6309.6,0.0468795,-0.0173687,0.0499936,-20.3295,81.3774
24,5011.9,0.0465379,-0.0134632,0.0484462,-16.1349,83.1042
25,3981.1,0.0465547,-0.0103722,0.0476962,-12.5602,84.8214
26,3162.3,0.0466644,-0.00786886,0.0473232,-9.57155,86.5529
27,2511.9,0.046785,-0.00582928,0.0471468,-7.10229,88.3802
28,1995.3,0.046965,-0.00416247,0.0471491,-5.06484,90.0924
29,1584.9,0.0472032,-0.00280524,0.0472864,-3.40103,91.8136
30,1258.9,0.0474678,-0.00170396,0.0474983,-2.05588,93.531
31,1000,0.0478947,-0.000749465,0.0479006,-0.896501,95.2424
32,794.33,0.0482475,-4.21457e-05,0.0482475,-0.0500496,97.0631
33,630.96,0.048409,0.000516003,0.0484118,0.610706,98.8016
34,501.19,0.0487729,0.000964945,0.0487824,1.13342,100.526
35,398.11,0.0491783,0.00131818,0.0491959,1.5354,102.23
36,316.23,0.0495831,0.00159267,0.0496087,1.83978,103.957
37,251.19,0.0500016,0.00180009,0.050034,2.0618,105.709
38,199.53,0.0503915,0.0019594,0.0504295,2.22674,107.435
39,158.49,0.0507661,0.00208362,0.0508089,2.3503,109.181
40,125.89,0.0511676,0.00218163,0.0512141,2.44143,111.011
41,100,0.0515461,0.00226892,0.051596,2.52038,112.782
42,79.433,0.0518781,0.00233128,0.0519304,2.57301,114.605
43,63.096,0.0522218,0.00238898,0.0522764,2.61927,116.482
44,50.119,0.0525426,0.00245731,0.0526,2.67766,118.583
45,39.811,0.052856,0.00253949,0.0529169,2.75069,120.531
46,31.623,0.0531338,0.00265179,0.0531999,2.85714,122.554
47,25.119,0.0534536,0.00281183,0.0535275,3.01117,124.659
48,19.953,0.053759,0.00301364,0.0538434,3.20855,126.96
49,15.849,0.0541285,0.00329157,0.0542285,3.47989,129.306
50,12.589,0.0545179,0.00363922,0.0546392,3.81899,131.78
51,10,0.05496,0.00405231,0.0551091,4.21691,134.474
52,7.9433,0.0554849,0.00452943,0.0556695,4.66691,137.22
53,6.3096,0.0561696,0.00504815,0.056396,5.13557,140.054
54,5.0119,0.0569777,0.00558129,0.0572504,5.59459,142.849
55,3.9811,0.0579287,0.00608688,0.0582476,5.99837,145.676
56,3.1623,0.0590109,0.00652008,0.0593701,6.305,148.597
57,2.5119,0.0602087,0.00684689,0.0605968,6.48777,151.53
58,1.9953,0.0614321,0.00703571,0.0618337,6.53351,154.622
59,1.5849,0.0626838,0.00708172,0.0630826,6.44568,157.74
60,1.2589,0.0638793,0.00701017,0.0642628,6.26263,161.061
61,1,0.0650021,0.00685891,0.0653629,6.02347,164.711
62,0.79433,0.0660128,0.00665968,0.0663479,5.76077,168.374
63,0.63096,0.0669342,0.0064719,0.0672464,5.52279,172.308
64,0.50119,0.067782,0.00636604,0.0680803,5.36544,176.562
65,0.39811,0.0684543,0.00628658,0.0687424,5.24711,181.284
66,0.31623,0.0692231,0.00631476,0.0695106,5.21228,186.469
67,0.25119,0.0699192,0.00651083,0.0702217,5.32,192.259
68,0.19953,0.0706459,0.00670565,0.0709635,5.42222,198.862
69,0.15849,0.07129,0.00708221,0.0716409,5.67336,206.567
70,0.12589,0.0720706,0.00763335,0.0724737,6.04593,215.495
71,0.1,0.0729392,0.00818329,0.0733968,6.40144,226.155

File: NMC_1_Pristine_35C.txt
Index,Frequency (Hz),Z' (Ω),-Z'' (Ω),Z (Ω),-Phase (°),Time (s)
1,1000000,1.2658,-1.45352,1.92743,-48.949,14.3356
2,794330,0.900917,-1.32393,1.60138,-55.7652,16.1739
3,630960,0.653238,-1.15139,1.32379,-60.4317,19.5952
4,501190,0.46906,-0.978488,1.08511,-64.3882,22.9062
5,398110,0.339886,-0.816597,0.884507,-67.4018,27.5683
6,316230,0.250869,-0.672702,0.717957,-69.5481,30.6988
7,251190,0.189308,-0.54941,0.58111,-70.9878,33.8129
8,199530,0.149697,-0.447592,0.471962,-71.5075,35.5431
9,158490,0.121383,-0.363549,0.383278,-71.5367,37.4221
10,125890,0.101666,-0.294965,0.311995,-70.9823,39.1435
11,100000,0.0875362,-0.239248,0.254759,-69.9034,42.3864
12,79433,0.0772787,-0.193957,0.208785,-68.276,44.1314
13,63096,0.06968,-0.157305,0.172047,-66.1086,45.954
14,50119,0.0639056,-0.12747,0.142592,-63.3737,47.7867
15,39811,0.0595204,-0.103182,0.119119,-60.0216,49.6468
16,31623,0.056182,-0.083328,0.100499,-56.0111,51.3761
17,25119,0.0534701,-0.0669346,0.0856697,-51.3807,53.1853
18,19953,0.0516511,-0.053811,0.0745887,-46.1733,55.0059
19,15849,0.0503474,-0.0431577,0.0663133,-40.6031,56.7868
20,12589,0.0494035,-0.0344963,0.0602553,-34.9249,58.517
21,10000,0.0486208,-0.0274421,0.0558306,-29.4409,61.6529
22,7943.3,0.0482176,-0.0217494,0.0528959,-24.2786,63.3139
23,6309.6,0.0480301,-0.0171757,0.0510088,-19.6772,65.055
24,5011.9,0.0476764,-0.0134057,0.0495252,-15.705,66.8718
25,3981.1,0.0476762,-0.0104445,0.0488069,-12.3566,68.6042
26,3162.3,0.0477666,-0.00806389,0.0484425,-9.58224,70.3449
27,2511.9,0.0478478,-0.00614202,0.0482404,-7.31481,72.0756
28,1995.3,0.0479547,-0.00457982,0.0481729,-5.45538,73.802
29,1584.9,0.0481194,-0.00332746,0.0482343,-3.95571,75.5066
30,1258.9,0.0482731,-0.00232226,0.0483289,-2.75419,77.2079
31,1000,0.0485872,-0.00144843,0.0486088,-1.70754,78.9414
32,794.33,0.048806,-0.000828278,0.048813,-0.972263,80.7628
33,630.96,0.0488257,-0.000344686,0.0488269,-0.404474,82.5046
34,501.19,0.0490323,4.19819e-05,0.0490323,0.0490572,84.2517
35,398.11,0.0492598,0.000346135,0.049261,0.402595,85.9481
36,316.23,0.0494817,0.000587778,0.0494852,0.680567,87.6878
37,251.19,0.0497154,0.000783312,0.0497215,0.902674,89.4497
38,199.53,0.0499459,0.000940626,0.0499547,1.07892,91.181
39,158.49,0.0501731,0.00107822,0.0501847,1.23109,92.9263
40,125.89,0.0504039,0.00119866,0.0504181,1.3623,94.7429
41,100,0.0505978,0.00131718,0.0506149,1.49121,96.5306
42,79.433,0.0508325,0.0014139,0.0508521,1.59327,98.3419
43,63.096,0.0510505,0.00150945,0.0510728,1.69361,100.193
44,50.119,0.0512575,0.00161191,0.0512828,1.80121,102.27
45,39.811,0.0514605,0.00172335,0.0514894,1.91805,104.223
46,31.623,0.0516707,0.00185145,0.0517039,2.05213,106.242
47,25.119,0.05194,0.0020034,0.0519786,2.20889,108.33
48,19.953,0.0522112,0.00216444,0.052256,2.37386,110.62
49,15.849,0.0525643,0.00235361,0.052617,2.56376,112.972
50,12.589,0.0529138,0.00254755,0.0529751,2.7564,115.358
51,10,0.0533336,0.00274023,0.053404,2.94121,118.047
52,7.9433,0.0538033,0.00290604,0.0538818,3.09167,120.801
53,6.3096,0.0542978,0.00303286,0.0543824,3.197,123.606
54,5.0119,0.0548462,0.00311129,0.0549344,3.24677,126.393
55,3.9811,0.0553815,0.00313476,0.0554701,3.23966,129.258
56,3.1623,0.0558767,0.00310731,0.055963,3.18294,132.21
57,2.5119,0.0563854,0.00305948,0.0564683,3.10583,135.158
58,1.9953,0.0568399,0.00299247,0.0569187,3.01369,138.23
59,1.5849,0.057258,0.00292663,0.0573328,2.92601,141.358
60,1.2589,0.0575783,0.00288153,0.0576504,2.865,144.654
61,1,0.0579438,0.00287091,0.0580148,2.83648,148.312
62,0.79433,0.0582647,0.00291375,0.0583375,2.86291,151.965
63,0.63096,0.0585571,0.00300074,0.0586339,2.93354,155.835
64,0.50119,0.0588524,0.00315091,0.0589367,3.06464,160.107
65,0.39811,0.0592101,0.00336119,0.0593054,3.24903,164.819
66,0.31623,0.0595633,0.00364818,0.0596749,3.50492,170.011
67,0.25119,0.0599251,0.00394825,0.060055,3.76956,175.847
68,0.19953,0.0604082,0.00437031,0.0605661,4.13793,182.455
69,0.15849,0.0609161,0.00485124,0.061109,4.55331,190.192
70,0.12589,0.0614063,0.00535345,0.0616392,4.98249,199.164
71,0.1,0.0619057,0.00602765,0.0621985,5.56126,209.831

File: NMC_1_Pristine_45C.txt
Index,Frequency (Hz),Z' (Ω),-Z'' (Ω),Z (Ω),-Phase (°),Time (s)
1,1000000,1.38856,-1.62327,2.13614,-49.456,19.1142
2,794330,0.985256,-1.47723,1.77565,-56.2982,22.4329
3,630960,0.70944,-1.285,1.46783,-61.0972,25.7584
4,501190,0.504813,-1.09105,1.20217,-65.1706,29.0873
5,398110,0.361423,-0.909028,0.978242,-68.3176,32.3081
6,316230,0.263176,-0.748544,0.793461,-70.6292,35.4413
7,251190,0.195365,-0.610738,0.641225,-72.2614,38.5694
8,199530,0.151728,-0.496469,0.519137,-73.0061,40.3067
9,158490,0.120807,-0.402567,0.420303,-73.2959,42.156
10,125890,0.0994609,-0.32569,0.340539,-73.0181,43.8531
11,100000,0.0844729,-0.263499,0.276709,-72.2251,47.1515
12,79433,0.0738078,-0.213063,0.225485,-70.8933,48.7841
13,63096,0.065986,-0.172135,0.184349,-69.0263,50.6025
14,50119,0.0602207,-0.139046,0.151527,-66.5827,52.4216
15,39811,0.0559024,-0.112176,0.125334,-63.5109,54.2789
16,31623,0.0527221,-0.0904634,0.104705,-59.7663,56.096
17,25119,0.0500853,-0.0725274,0.0881406,-55.3722,57.9035
18,19953,0.0483309,-0.0582848,0.0757166,-50.3338,59.6255
19,15849,0.047033,-0.0467291,0.0663002,-44.8143,61.3743
20,12589,0.04613,-0.0374103,0.0593928,-39.0412,63.1907
21,10000,0.0453482,-0.0298201,0.0542743,-33.3281,66.3103
22,7943.3,0.0449316,-0.0237087,0.0508031,-27.8189,67.9791
23,6309.6,0.0447042,-0.0188021,0.0484973,-22.8111,69.6999
24,5011.9,0.0443293,-0.0147648,0.0467235,-18.4214,71.5227
25,3981.1,0.0443123,-0.0116114,0.0458084,-14.6834,73.275
26,3162.3,0.0443211,-0.00907362,0.0452404,-11.57,74.9665
27,2511.9,0.0443561,-0.00703663,0.0449108,-9.01425,76.689
28,1995.3,0.0444044,-0.005392,0.0447306,-6.92349,78.3959
29,1584.9,0.0444962,-0.00407008,0.044682,-5.22632,80.1476
30,1258.9,0.0446129,-0.00301092,0.0447144,-3.86103,81.845
31,1000,0.0448191,-0.00210236,0.0448684,-2.68565,83.5665
32,794.33,0.0449902,-0.00144179,0.0450133,-1.83552,85.3847
33,630.96,0.0449513,-0.000919199,0.0449607,-1.17147,87.1048
34,501.19,0.0451083,-0.000503242,0.0451111,-0.639183,88.8673
35,398.11,0.045282,-0.000171948,0.0452824,-0.217566,90.5635
36,316.23,0.0454275,9.18833e-05,0.0454276,0.115888,92.3156
37,251.19,0.0455832,0.000305627,0.0455842,0.384152,94.0754
38,199.53,0.0457592,0.000482163,0.0457618,0.603701,95.7968
39,158.49,0.0459182,0.000639543,0.0459227,0.797957,97.5493
40,125.89,0.0460887,0.000772616,0.0460952,0.960398,99.3569
41,100,0.0462549,0.00089569,0.0462635,1.10935,101.134
42,79.433,0.0464308,0.0010015,0.0464416,1.23567,102.973
43,63.096,0.046594,0.00110012,0.0466069,1.35255,104.884
44,50.119,0.0467681,0.00119468,0.0467833,1.46329,106.959
45,39.811,0.0469437,0.00129251,0.0469615,1.57714,108.92
46,31.623,0.0471464,0.00138813,0.0471668,1.68647,110.947
47,25.119,0.0473872,0.00148722,0.0474106,1.7976,113.018
48,19.953,0.0476267,0.0015641,0.0476524,1.88096,115.298
49,15.849,0.0479227,0.00163916,0.0479508,1.95899,117.638
50,12.589,0.0482073,0.00169139,0.0482369,2.00944,120.021
51,10,0.0485243,0.00171902,0.0485547,2.02891,122.702
52,7.9433,0.0487861,0.00171558,0.0488162,2.014,125.448
53,6.3096,0.0490897,0.00169122,0.0491188,1.97315,128.248
54,5.0119,0.049324,0.00165238,0.0493517,1.91872,131.064
55,3.9811,0.0495672,0.0016139,0.0495935,1.86489,133.878
56,3.1623,0.0497541,0.00157905,0.0497791,1.81779,136.817
57,2.5119,0.049975,0.00155823,0.0499993,1.78592,139.818
58,1.9953,0.0501367,0.00156253,0.0501611,1.78507,142.91
59,1.5849,0.0503079,0.00158448,0.0503328,1.80397,146.037
60,1.2589,0.0504916,0.00164418,0.0505184,1.86509,149.326
61,1,0.0506537,0.00173657,0.0506834,1.96352,152.978
62,0.79433,0.0508238,0.00186083,0.0508578,2.09686,156.626
63,0.63096,0.0510243,0.00202963,0.0510647,2.2779,160.491
64,0.50119,0.0512374,0.00223986,0.0512864,2.50311,164.745
65,0.39811,0.0514631,0.00251738,0.0515246,2.80046,169.404
66,0.31623,0.0517246,0.00281542,0.0518011,3.11559,174.579
67,0.25119,0.0521044,0.00315673,0.0522,3.467,180.38
68,0.19953,0.0524523,0.00354934,0.0525723,3.87118,186.982
69,0.15849,0.0528397,0.00397879,0.0529893,4.3062,194.745
70,0.12589,0.0532768,0.00446117,0.0534633,4.78653,203.709
71,0.1,0.0537023,0.00492859,0.0539279,5.2437,214.345