Folder: ECSHackWeek_Dallas/tutorials/data/eis (part 4)

File: LFP_1_Pristine_25C.txt
Index,Frequency (Hz),Z' (Ω),-Z'' (Ω),Z (Ω),-Phase (°),Time (s)
1,1000000,1.14891,-1.38894,1.80254,-50.4029,14.4652
2,794330,0.812289,-1.25467,1.49466,-57.0804,17.8077
3,630960,0.585735,-1.08088,1.22938,-61.5465,21.1534
4,501190,0.419976,-0.912583,1.00458,-65.2878,24.485
5,398110,0.304858,-0.757671,0.816703,-68.082,29.1511
6,316230,0.226283,-0.621699,0.6616,-69.9998,32.2934
7,251190,0.17232,-0.506008,0.534545,-71.1938,35.4188
8,199530,0.137851,-0.410535,0.433061,-71.4388,37.1402
9,158490,0.113504,-0.332261,0.351113,-71.1393,39.0263
10,125890,0.096861,-0.268636,0.285565,-70.1724,40.7533
11,100000,0.0850622,-0.216787,0.232878,-68.5761,44.0896
12,79433,0.0768769,-0.175143,0.191272,-66.3015,45.7533
13,63096,0.0709159,-0.141465,0.158245,-63.3756,47.5609
14,50119,0.0664917,-0.114385,0.132306,-59.8306,49.381
15,39811,0.0630644,-0.092484,0.111939,-55.7101,51.2527
16,31623,0.0603939,-0.0747636,0.0961094,-51.0688,52.9784
17,25119,0.0580125,-0.0601292,0.0835522,-46.0264,54.8093
18,19953,0.05642,-0.0484667,0.074379,-40.6637,56.5313
19,15849,0.0551884,-0.0389162,0.0675295,-35.1896,58.2947
20,12589,0.0542885,-0.0311363,0.0625836,-29.8357,60.0205
21,10000,0.0534777,-0.0247396,0.0589229,-24.826,63.1513
22,7943.3,0.0530842,-0.0195543,0.0565712,-20.2219,64.7835
23,6309.6,0.0529012,-0.0153611,0.0550863,-16.1919,66.5109
24,5011.9,0.0525485,-0.0118934,0.0538776,-12.753,68.2517
25,3981.1,0.0525658,-0.00914609,0.0533555,-9.87027,69.9679
26,3162.3,0.0526827,-0.0069209,0.0531354,-7.48406,71.6848
27,2511.9,0.052816,-0.00509755,0.0530614,-5.51284,73.4964
28,1995.3,0.0529464,-0.00359203,0.0530681,-3.88116,75.216
29,1584.9,0.0531541,-0.00236352,0.0532066,-2.546,76.9466
30,1258.9,0.0533654,-0.001355,0.0533826,-1.45449,78.6459
31,1000,0.0537469,-0.000440669,0.0537487,-0.469755,80.3679
32,794.33,0.0540641,0.000220814,0.0540646,0.234012,82.2103
33,630.96,0.0541673,0.000756897,0.0541726,0.80056,83.9544
34,501.19,0.0545125,0.00121405,0.054526,1.27582,85.6833
35,398.11,0.0548333,0.00160317,0.0548567,1.67469,87.3895
36,316.23,0.0552327,0.00194698,0.055267,2.01887,89.1217
37,251.19,0.0555955,0.00225599,0.0556413,2.32371,90.8722
38,199.53,0.0560207,0.00254715,0.0560785,2.60334,92.6027
39,158.49,0.0564351,0.00282982,0.056506,2.87057,94.3411
40,125.89,0.0569214,0.00311387,0.0570065,3.13123,96.2187
41,100,0.05743,0.00339834,0.0575304,3.38645,97.9867
42,79.433,0.0579895,0.00366393,0.0581051,3.6153,99.8044
43,63.096,0.0585769,0.00391714,0.0587077,3.82577,101.657
44,50.119,0.0592049,0.0041438,0.0593498,4.00365,103.734
45,39.811,0.0599442,0.00434021,0.0601011,4.14123,105.677
46,31.623,0.0606685,0.00448092,0.0608337,4.22415,107.721
47,25.119,0.0614506,0.00456078,0.0616196,4.24463,109.81
48,19.953,0.0622524,0.00455991,0.0624192,4.18936,112.119
49,15.849,0.0630767,0.00449346,0.0632365,4.07475,114.471
50,12.589,0.0637831,0.00435897,0.0639319,3.90954,116.964
51,10,0.0645144,0.00416742,0.0646488,3.69599,119.658
52,7.9433,0.0651766,0.00393343,0.0652952,3.45363,122.419
53,6.3096,0.0657157,0.00367071,0.0658181,3.19707,125.235
54,5.0119,0.0662303,0.00340318,0.0663177,2.9415,128.037
55,3.9811,0.0666585,0.00314838,0.0667328,2.70416,130.857
56,3.1623,0.0670494,0.00292251,0.0671131,2.49579,133.803
57,2.5119,0.0673386,0.00273319,0.067394,2.32429,136.813
58,1.9953,0.0676175,0.00258497,0.0676669,2.18932,139.864
59,1.5849,0.067897,0.00248475,0.0679425,2.09585,143.007
60,1.2589,0.0681006,0.00242927,0.0681439,2.04298,146.292
61,1,0.0683052,0.00242462,0.0683483,2.03296,149.972
62,0.79433,0.0684965,0.00250117,0.0685422,2.09124,153.626
63,0.63096,0.0687193,0.00262647,0.0687695,2.18879,157.501
64,0.50119,0.0688643,0.00281891,0.0689219,2.34405,161.793
65,0.39811,0.0690622,0.00311213,0.0691322,2.58016,166.541
66,0.31623,0.0693077,0.00350078,0.0693961,2.8916,171.73
67,0.25119,0.0695838,0.00393651,0.069695,3.2379,177.577
68,0.19953,0.0697987,0.00457162,0.0699483,3.74736,184.199
69,0.15849,0.0701323,0.00533134,0.0703346,4.34717,191.951
70,0.12589,0.0704519,0.00618831,0.0707231,5.01983,200.909
71,0.1,0.0706796,0.00727028,0.0710525,5.87293,211.515

File: LFP_1_Pristine_35C.txt
Index,Frequency (Hz),Z' (Ω),-Z'' (Ω),Z (Ω),-Phase (°),Time (s)
1,1000000,1.16803,-1.37522,1.8043,-49.6575,19.2508
2,794330,0.833574,-1.24427,1.49768,-56.1807,21.1444
3,630960,0.608306,-1.07346,1.23383,-60.4607,24.5341
4,501190,0.442509,-0.906851,1.00906,-63.9894,30.6812
5,398110,0.327714,-0.75365,0.821818,-66.4989,35.308
6,316230,0.249216,-0.61935,0.66761,-68.081,39.7371
7,251190,0.194978,-0.504706,0.541059,-68.8774,42.8709
8,199530,0.160192,-0.410183,0.440354,-68.6674,44.5817
9,158490,0.135406,-0.332719,0.359217,-67.8552,46.3963
10,125890,0.118152,-0.269443,0.294209,-66.3224,48.1335
11,100000,0.105876,-0.218056,0.242401,-64.1014,51.3479
12,79433,0.0971347,-0.176371,0.20135,-61.1566,52.9629
13,63096,0.0907675,-0.142659,0.169087,-57.5332,54.8081
14,50119,0.0860067,-0.115365,0.143897,-53.2949,56.631
15,39811,0.0823929,-0.0932654,0.124447,-48.5418,58.4536
16,31623,0.0796713,-0.0753837,0.109682,-43.416,60.2663
17,25119,0.0771682,-0.0605685,0.0980993,-38.128,61.9806
18,19953,0.0755363,-0.0487507,0.089902,-32.8379,63.8028
19,15849,0.0743837,-0.0391656,0.0840647,-27.7684,65.6254
20,12589,0.0734688,-0.0313267,0.0798688,-23.0931,67.384
21,10000,0.0728514,-0.024952,0.077006,-18.9066,70.5902
22,7943.3,0.0725006,-0.0197862,0.0751521,-15.2649,72.2289
23,6309.6,0.0723019,-0.0156117,0.0739681,-12.1845,73.9915
24,5011.9,0.0718446,-0.0121756,0.072869,-9.61861,75.8098
25,3981.1,0.0718892,-0.00947142,0.0725105,-7.5055,77.5263
26,3162.3,0.0719144,-0.00725979,0.07228,-5.7645,79.2282
27,2511.9,0.0719858,-0.00545883,0.0721925,-4.33656,80.9673
28,1995.3,0.0720873,-0.00400166,0.0721983,-3.1773,82.6841
29,1584.9,0.0722004,-0.0028202,0.0722555,-2.23688,84.3459
30,1258.9,0.0723693,-0.00186573,0.0723933,-1.4768,86.0432
31,1000,0.0727582,-0.001042,0.0727657,-0.820502,87.7484
32,794.33,0.0730094,-0.000419793,0.0730106,-0.329439,89.5511
33,630.96,0.0732521,9.59859e-05,0.0732522,0.0750774,91.262
34,501.19,0.0731862,0.000516343,0.0731881,0.404226,93.0263
35,398.11,0.0734305,0.00088562,0.0734359,0.690991,94.7182
36,316.23,0.0737771,0.00120877,0.073787,0.938655,96.4331
37,251.19,0.0740894,0.00149198,0.0741044,1.15365,98.1835
38,199.53,0.0744521,0.00174177,0.0744724,1.34016,99.9425
39,158.49,0.074773,0.00195999,0.0747986,1.50153,101.693
40,125.89,0.0752118,0.00215071,0.0752425,1.63795,103.486
41,100,0.0756395,0.00230826,0.0756748,1.74793,105.295
42,79.433,0.076065,0.0024102,0.0761032,1.81487,107.118
43,63.096,0.0765051,0.00246879,0.0765449,1.84827,108.962
44,50.119,0.0769899,0.00248529,0.07703,1.84891,111.047
45,39.811,0.0774293,0.0024573,0.0774683,1.81773,112.995
46,31.623,0.0778697,0.00239111,0.0779064,1.7588,115.03
47,25.119,0.0782416,0.00229313,0.0782752,1.67876,117.104
48,19.953,0.0786509,0.00215945,0.0786805,1.57273,119.422
49,15.849,0.0789679,0.00201488,0.0789936,1.4616,121.769
50,12.589,0.0792776,0.00186952,0.0792997,1.3509,124.231
51,10,0.0795095,0.00172562,0.0795282,1.24331,126.922
52,7.9433,0.0797389,0.00159507,0.0797548,1.14597,129.622
53,6.3096,0.0799337,0.00148044,0.0799474,1.06104,132.439
54,5.0119,0.0801043,0.00138019,0.0801162,0.987105,135.221
55,3.9811,0.0802437,0.00131189,0.0802544,0.936637,138.086
56,3.1623,0.080397,0.0012659,0.0804069,0.902084,141.023
57,2.5119,0.0805215,0.00123999,0.0805311,0.882256,143.951
58,1.9953,0.0806249,0.00124466,0.0806345,0.884441,146.993
59,1.5849,0.0807593,0.00127503,0.0807694,0.904511,150.168
60,1.2589,0.0808286,0.00133449,0.0808396,0.945873,153.487
61,1,0.0809581,0.00142452,0.0809706,1.00806,157.172
62,0.79433,0.081057,0.00157049,0.0810722,1.10998,160.789
63,0.63096,0.081191,0.00175402,0.0812099,1.23761,164.662
64,0.50119,0.0813377,0.00197856,0.0813617,1.39346,168.913
65,0.39811,0.0815013,0.00229223,0.0815335,1.61102,173.591
66,0.31623,0.0816522,0.00266757,0.0816958,1.87118,178.758
67,0.25119,0.0818549,0.00309425,0.0819133,2.16485,184.603
68,0.19953,0.0820442,0.00366607,0.082126,2.55851,191.201
69,0.15849,0.0822986,0.00434571,0.0824133,3.02264,198.897
70,0.12589,0.0825489,0.00513475,0.0827084,3.55936,207.895
71,0.1,0.0828078,0.00607681,0.0830305,4.1971,218.502

File: LFP_1_Pristine_45C.txt
Index,Frequency (Hz),Z' (Ω),-Z'' (Ω),Z (Ω),-Phase (°),Time (s)
1,1000000,1.21648,-1.45708,1.89814,-50.1423,14.4481
2,794330,0.863409,-1.31369,1.57202,-56.6855,16.3251
3,630960,0.625398,-1.13529,1.29615,-61.1509,19.7922
4,501190,0.450227,-0.958862,1.0593,-64.8479,23.1466
5,398110,0.329179,-0.79641,0.861758,-67.5433,26.3584
6,316230,0.246337,-0.653851,0.698715,-69.3562,30.8491
7,251190,0.189271,-0.531853,0.564527,-70.4109,33.9774
8,199530,0.153077,-0.431688,0.458025,-70.4755,35.7591
9,158490,0.127473,-0.349713,0.372221,-69.9728,37.5693
10,125890,0.109743,-0.282707,0.30326,-68.7844,39.2802
11,100000,0.0972963,-0.228504,0.248356,-66.9358,42.4928
12,79433,0.0884832,-0.1848,0.204891,-64.4146,44.2138
13,63096,0.0820216,-0.149445,0.170474,-61.2401,46.0262
14,50119,0.0771307,-0.120967,0.143465,-57.4777,47.8626
15,39811,0.0733074,-0.0979439,0.12234,-53.1865,49.5901
16,31623,0.0703476,-0.079263,0.105978,-48.4103,51.313
17,25119,0.0677195,-0.0638188,0.0930525,-43.3014,53.1297
18,19953,0.0659182,-0.0514574,0.0836246,-37.9765,54.9919
19,15849,0.064543,-0.0413841,0.076671,-32.6675,56.7142
20,12589,0.0635422,-0.0331761,0.0716817,-27.5695,58.5343
21,10000,0.0627741,-0.0264745,0.0681285,-22.8672,61.7508
22,7943.3,0.0623397,-0.0210526,0.0657985,-18.6602,63.3707
23,6309.6,0.0620705,-0.0166796,0.0642725,-15.0412,65.0864
24,5011.9,0.061637,-0.0130941,0.0630125,-11.9935,66.8033
25,3981.1,0.0615579,-0.0102607,0.0624071,-9.46327,68.5306
26,3162.3,0.0616051,-0.00798841,0.0621209,-7.38839,70.2404
27,2511.9,0.0616043,-0.00611525,0.061907,-5.66899,72.0422
28,1995.3,0.0616209,-0.00459991,0.0617924,-4.26912,73.8099
29,1584.9,0.0616797,-0.00337038,0.0617717,-3.12771,75.5011
30,1258.9,0.0617392,-0.00236923,0.0617846,-2.19764,77.2008
31,1000,0.0620353,-0.00149277,0.0620533,-1.37846,78.9438
32,794.33,0.0622029,-0.000831786,0.0622084,-0.766122,80.7996
33,630.96,0.0621229,-0.000288419,0.0621236,-0.266006,82.5301
34,501.19,0.0623233,0.000171748,0.0623235,0.157893,84.2517
35,398.11,0.0625549,0.000557826,0.0625574,0.510915,85.9543
36,316.23,0.062849,0.000883074,0.0628552,0.804994,87.6931
37,251.19,0.0631787,0.00115031,0.0631892,1.04308,89.439
38,199.53,0.0634888,0.00136685,0.0635035,1.23333,91.1701
39,158.49,0.0638231,0.00153219,0.0638414,1.37523,92.9326
40,125.89,0.0641371,0.00164909,0.0641583,1.47286,94.7277
41,100,0.0645006,0.00172483,0.0645236,1.5318,96.4987
42,79.433,0.064848,0.00174204,0.0648714,1.53879,98.3345
43,63.096,0.0651424,0.00171642,0.065165,1.50932,100.213
44,50.119,0.0654466,0.00166289,0.0654677,1.45547,102.286
45,39.811,0.0657042,0.00158253,0.0657233,1.37974,104.238
46,31.623,0.0659611,0.00148606,0.0659778,1.29062,106.312
47,25.119,0.0662137,0.00138133,0.0662281,1.19512,108.375
48,19.953,0.0664165,0.00126598,0.0664285,1.09199,110.691
49,15.849,0.0665766,0.00116074,0.0665867,0.998832,113.091
50,12.589,0.0667413,0.00106746,0.0667498,0.916311,115.559
51,10,0.0668532,0.000988416,0.0668605,0.847049,118.249
52,7.9433,0.0669285,0.00092286,0.0669349,0.789987,120.996
53,6.3096,0.0670527,0.000871772,0.0670583,0.744877,123.807
54,5.0119,0.0671409,0.000836782,0.0671461,0.714045,126.671
55,3.9811,0.0672196,0.000818072,0.0672246,0.697263,129.483
56,3.1623,0.0673325,0.00081979,0.0673375,0.697555,132.44
57,2.5119,0.0674094,0.000840916,0.0674146,0.714714,135.442
58,1.9953,0.0674696,0.00087722,0.0674753,0.744901,138.566
59,1.5849,0.0675195,0.000939951,0.0675261,0.797573,141.679
60,1.2589,0.0676037,0.00102564,0.0676115,0.869191,144.996
61,1,0.0677163,0.00112918,0.0677257,0.955331,148.736
62,0.79433,0.0677954,0.00128112,0.0678075,1.08258,152.426
63,0.63096,0.0678614,0.00145974,0.0678771,1.23228,156.304
64,0.50119,0.0679381,0.00171271,0.0679597,1.44411,160.577
65,0.39811,0.0680952,0.00196816,0.0681236,1.65556,165.26
66,0.31623,0.0682206,0.00231057,0.0682597,1.93982,170.454
67,0.25119,0.0683651,0.00276719,0.0684211,2.31787,176.318
68,0.19953,0.0685488,0.00323269,0.068625,2.70001,182.945
69,0.15849,0.0687412,0.00386086,0.0688495,3.21465,190.642
70,0.12589,0.068934,0.00462152,0.0690887,3.83552,199.57
71,0.1,0.0692374,0.00562163,0.0694652,4.64187,210.14

File: LFP_2_Pristine_5C.txt
Index,Frequency (Hz),Z' (Ω),-Z'' (Ω),Z (Ω),-Phase (°),Time (s)
1,1000000,1.18138,-1.41393,1.84251,-50.1204,38.2513
2,794330,0.838195,-1.27785,1.52823,-56.7375,40.1437
3,630960,0.606595,-1.09955,1.25577,-61.1155,43.6112
4,501190,0.437941,-0.927844,1.026,-64.7328,46.9115
5,398110,0.321184,-0.770013,0.834314,-67.3583,50.134
6,316230,0.241494,-0.631564,0.67616,-69.0744,54.5493
7,251190,0.186729,-0.513487,0.546385,-70.0163,57.6529
8,199530,0.152068,-0.416619,0.443505,-69.9477,59.3688
9,158490,0.127518,-0.337089,0.360402,-69.2788,61.1936
10,125890,0.110617,-0.2721,0.293725,-67.8767,62.8954
11,100000,0.098872,-0.219699,0.240921,-65.7706,66.1878
12,79433,0.0906377,-0.177323,0.199144,-62.9264,67.9001
13,63096,0.0846664,-0.143078,0.166252,-59.3851,69.7223
14,50119,0.0802307,-0.115436,0.140579,-55.1997,71.5411
15,39811,0.0768788,-0.0931407,0.120771,-50.4636,73.3625
16,31623,0.0743327,-0.0751402,0.105695,-45.3095,75.0835
17,25119,0.0720088,-0.0602668,0.0939007,-39.9272,76.8953
18,19953,0.0705152,-0.0484061,0.085531,-34.4682,78.7287
19,15849,0.0694013,-0.0387134,0.0794687,-29.1536,80.4691
20,12589,0.0685455,-0.0307664,0.0751336,-24.1728,82.1918
21,10000,0.0679459,-0.0242982,0.0721599,-19.6776,85.4571
22,7943.3,0.0676827,-0.0189928,0.0702971,-15.6749,87.1136
23,6309.6,0.0676072,-0.0146624,0.0691789,-12.2366,88.8362
24,5011.9,0.0673142,-0.0110651,0.0682176,-9.33477,90.5675
25,3981.1,0.067498,-0.00818029,0.0679919,-6.91015,92.3082
26,3162.3,0.0677423,-0.00579276,0.0679895,-4.88757,94.0055
27,2511.9,0.0680107,-0.00379763,0.0681167,-3.196,95.8015
28,1995.3,0.0683376,-0.00213294,0.0683709,-1.78772,97.4987
29,1584.9,0.0687436,-0.00073396,0.0687475,-0.611711,99.2201
30,1258.9,0.0692067,0.000454126,0.0692082,0.375962,100.906
31,1000,0.0698816,0.00152495,0.0698982,1.25011,102.623
32,794.33,0.0705196,0.00239176,0.0705602,1.94251,104.431
33,630.96,0.0709085,0.00312814,0.0709775,2.52598,106.145
34,501.19,0.0715868,0.00379452,0.0716873,3.03417,107.888
35,398.11,0.0723278,0.00439683,0.0724613,3.47875,109.579
36,316.23,0.073092,0.00495997,0.0732601,3.8821,111.292
37,251.19,0.0739409,0.00550809,0.0741458,4.26027,113.049
38,199.53,0.0747879,0.00605644,0.0750327,4.6298,114.782
39,158.49,0.0757101,0.00663067,0.0759999,5.00518,116.537
40,125.89,0.0766753,0.00723925,0.0770163,5.39355,118.375
41,100,0.0777076,0.00788943,0.0781071,5.79721,120.148
42,79.433,0.0788246,0.00856465,0.0792885,6.20112,121.955
43,63.096,0.0800344,0.00928256,0.0805709,6.61572,123.812
44,50.119,0.0813707,0.0100422,0.081988,7.03543,125.892
45,39.811,0.0827942,0.0108451,0.0835015,7.46264,127.859
46,31.623,0.0843506,0.0117031,0.0851586,7.89899,129.869
47,25.119,0.085979,0.012624,0.0869008,8.35283,131.974
48,19.953,0.0878559,0.0136084,0.0889036,8.80483,134.265
49,15.849,0.0898602,0.0146674,0.0910494,9.27036,136.61
50,12.589,0.0920957,0.0157653,0.0934353,9.71393,139.083
51,10,0.0946591,0.0168764,0.0961518,10.1088,141.775
52,7.9433,0.0974259,0.0178966,0.099056,10.4089,144.526
53,6.3096,0.100577,0.0187804,0.102315,10.5768,147.336
54,5.0119,0.104376,0.0194962,0.106181,10.5802,150.132
55,3.9811,0.10786,0.0198244,0.109667,10.4146,153.02
56,3.1623,0.111352,0.0197972,0.113098,10.0813,155.952
57,2.5119,0.114838,0.0194609,0.116476,9.61819,158.953
58,1.9953,0.118119,0.0188165,0.119608,9.05123,162.038
59,1.5849,0.121146,0.0179469,0.122468,8.42669,165.165
60,1.2589,0.123958,0.0169379,0.12511,7.78083,168.475
61,1,0.126329,0.0158435,0.127319,7.14838,172.115
62,0.79433,0.128515,0.014785,0.129363,6.56273,175.813
63,0.63096,0.130263,0.0138218,0.130995,6.05678,179.698
64,0.50119,0.131923,0.013131,0.132575,5.68425,183.962
65,0.39811,0.133251,0.0125594,0.133842,5.38445,188.578
66,0.31623,0.134505,0.0122742,0.135063,5.21407,193.743
67,0.25119,0.135742,0.0123761,0.136305,5.20946,199.56
68,0.19953,0.13681,0.0125779,0.137387,5.25284,206.157
69,0.15849,0.13788,0.0132728,0.138518,5.49853,213.874
70,0.12589,0.139042,0.0143447,0.13978,5.89026,222.791
71,0.1,0.140379,0.0155737,0.14124,6.33054,233.446

File: LFP_2_Pristine_15C.txt
Index,Frequency (Hz),Z' (Ω),-Z'' (Ω),Z (Ω),-Phase (°),Time (s)
1,1000000,1.0475,-1.22769,1.61384,-49.5281,19.0364
2,794330,0.747155,-1.11116,1.339,-56.0826,20.869
3,630960,0.545644,-0.957517,1.10207,-60.3232,24.2961
4,501190,0.397778,-0.808998,0.901502,-63.817,27.6033
5,398110,0.295119,-0.672579,0.734478,-66.3088,32.2258
6,316230,0.224756,-0.552727,0.596676,-67.8718,36.6682
7,251190,0.176042,-0.450264,0.483455,-68.6458,39.7741
8,199530,0.145018,-0.366311,0.393972,-68.402,41.5113
9,158490,0.122744,-0.297353,0.32169,-67.5697,43.348
10,125890,0.107162,-0.240912,0.26367,-66.0197,45.0689
11,100000,0.0959867,-0.195139,0.217469,-63.8079,48.3941
12,79433,0.0880252,-0.158036,0.180897,-60.8824,50.1211
13,63096,0.0821757,-0.128019,0.152124,-57.3034,51.9392
14,50119,0.0777423,-0.103617,0.129539,-53.1197,53.7721
15,39811,0.0743822,-0.0839259,0.112144,-48.4499,55.5072
16,31623,0.0717668,-0.0679172,0.098809,-43.4214,57.2358
17,25119,0.0693402,-0.0546144,0.0882655,-38.225,59.0667
18,19953,0.0677828,-0.044007,0.0808154,-32.993,60.852
19,15849,0.0665683,-0.0352992,0.0753484,-27.9357,62.6576
20,12589,0.0657102,-0.0281898,0.0715017,-23.2194,64.3798
21,10000,0.0650003,-0.0223336,0.0687301,-18.9624,67.638
22,7943.3,0.0646651,-0.0175613,0.0670073,-15.1935,69.2815
23,6309.6,0.0645007,-0.0136713,0.0659337,-11.9671,71.0041
24,5011.9,0.0641669,-0.0104517,0.0650125,-9.25123,72.7305
25,3981.1,0.0642639,-0.00787815,0.064745,-6.98905,74.4482
26,3162.3,0.0644242,-0.00576473,0.0646816,-5.11326,76.1548
27,2511.9,0.064572,-0.0040073,0.0646962,-3.55118,77.9614
28,1995.3,0.0648089,-0.00255623,0.0648593,-2.25872,79.7392
29,1584.9,0.0650711,-0.0013546,0.0650852,-1.19256,81.4191
30,1258.9,0.0653813,-0.000357802,0.0653822,-0.31355,83.1013
31,1000,0.0659092,0.000533169,0.0659114,0.463481,84.8642
32,794.33,0.0663411,0.00121894,0.0663523,1.05263,86.7155
33,630.96,0.0665378,0.00178231,0.0665617,1.53438,88.4264
34,501.19,0.0670375,0.00227737,0.0670761,1.94568,90.1433
35,398.11,0.0675385,0.00270755,0.0675928,2.2957,91.8437
36,316.23,0.0680517,0.00308943,0.0681218,2.59935,93.5822
37,251.19,0.0686187,0.00344263,0.068705,2.87215,95.3288
38,199.53,0.0692065,0.00377798,0.0693096,3.12467,97.0708
39,158.49,0.0697918,0.00410667,0.0699125,3.3675,98.8712
40,125.89,0.0704494,0.00444232,0.0705893,3.60812,100.684
41,100,0.0711125,0.00479539,0.071274,3.85783,102.44
42,79.433,0.0718066,0.00514979,0.0719911,4.10208,104.258
43,63.096,0.0725665,0.00553378,0.0727772,4.36082,106.145
44,50.119,0.0733589,0.00594168,0.0735991,4.63054,108.224
45,39.811,0.0742322,0.0063715,0.0745052,4.90579,110.169
46,31.623,0.0752512,0.00681769,0.0755594,5.17681,112.237
47,25.119,0.0762966,0.00724515,0.0766399,5.42456,114.307
48,19.953,0.0775119,0.00762634,0.0778861,5.61921,116.593
49,15.849,0.0788783,0.0079471,0.0792776,5.75322,118.963
50,12.589,0.0802742,0.00815864,0.0806878,5.80331,121.431
51,10,0.0817009,0.00824738,0.0821161,5.76425,124.133
52,7.9433,0.0832031,0.00819913,0.0836061,5.62796,126.843
53,6.3096,0.0845981,0.00802212,0.0849776,5.41695,129.648
54,5.0119,0.0859246,0.00772636,0.0862713,5.13823,132.454
55,3.9811,0.0871432,0.00734412,0.0874521,4.8173,135.27
56,3.1623,0.088358,0.00690779,0.0886276,4.47027,138.261
57,2.5119,0.0893198,0.00644941,0.0895524,4.12992,141.264
58,1.9953,0.0901647,0.00600893,0.0903648,3.81277,144.307
59,1.5849,0.0908947,0.00559625,0.0910669,3.52316,147.451
60,1.2589,0.0915469,0.00526751,0.0916983,3.29311,150.798
61,1,0.0921213,0.0050252,0.0922583,3.12238,154.451
62,0.79433,0.092622,0.00486944,0.0927499,3.00946,158.139
63,0.63096,0.0930919,0.00483083,0.0932172,2.97059,162.017
64,0.50119,0.0935265,0.00492984,0.0936563,3.01731,166.264
65,0.39811,0.0939287,0.00515014,0.0940698,3.1384,170.895
66,0.31623,0.0943611,0.0055023,0.0945214,3.3372,176.108
67,0.25119,0.0949048,0.00605234,0.0950976,3.64896,181.95
68,0.19953,0.0952719,0.00666354,0.0955047,4.00089,188.593
69,0.15849,0.0958315,0.00757381,0.0961303,4.51884,196.308
70,0.12589,0.0964235,0.008712,0.0968163,5.16274,205.25
71,0.1,0.0971519,0.0099369,0.0976588,5.84002,215.844

File: LFP_2_Pristine_25C.txt
Index,Frequency (Hz),Z' (Ω),-Z'' (Ω),Z (Ω),-Phase (°),Time (s)
1,1000000,1.14869,-1.35816,1.77879,-49.7764,14.4845
2,794330,0.819296,-1.22855,1.47668,-56.3014,16.3354
3,630960,0.597332,-1.05964,1.21641,-60.5896,19.7633
4,501190,0.434429,-0.895861,0.995638,-64.1299,23.0716
5,398110,0.321311,-0.74593,0.812189,-66.6959,27.671
6,316230,0.243363,-0.613827,0.66031,-68.3733,32.1196
7,251190,0.189186,-0.501532,0.536028,-69.3327,35.2328
8,199530,0.154142,-0.409224,0.437291,-69.3602,36.9446
9,158490,0.128548,-0.333199,0.357136,-68.9034,38.7883
10,125890,0.110304,-0.271026,0.292613,-67.8543,40.5148
11,100000,0.0969824,-0.220481,0.240868,-66.2569,43.8259
12,79433,0.0871783,-0.179083,0.199175,-64.043,45.5613
13,63096,0.079928,-0.145551,0.166053,-61.227,47.3034
14,50119,0.0743748,-0.118097,0.139566,-57.7982,49.1207
15,39811,0.070142,-0.0958002,0.118733,-53.7895,50.9876
16,31623,0.0668934,-0.0776067,0.102457,-49.2402,52.7322
17,25119,0.0640955,-0.0624852,0.0895133,-44.2711,54.5493
18,19953,0.0621979,-0.0503742,0.0800383,-39.0041,56.3742
19,15849,0.0607876,-0.0404826,0.073034,-33.6624,58.1122
20,12589,0.0597449,-0.0323972,0.0679635,-28.4692,59.8419
21,10000,0.0588534,-0.0257747,0.06425,-23.6509,63.0706
22,7943.3,0.0584004,-0.0203849,0.0618559,-19.2418,64.7104
23,6309.6,0.0582171,-0.0160403,0.0603864,-15.4043,66.447
24,5011.9,0.0578269,-0.0124394,0.0591497,-12.1401,68.2746
25,3981.1,0.0577998,-0.009577,0.0585879,-9.40801,70.0248
26,3162.3,0.0579007,-0.00726522,0.0583547,-7.15194,71.7372
27,2511.9,0.0580035,-0.00535783,0.0582504,-5.27748,73.5543
28,1995.3,0.0581366,-0.00379102,0.0582601,-3.73091,75.2746
29,1584.9,0.0583579,-0.00251561,0.0584121,-2.4683,76.9847
30,1258.9,0.0585241,-0.0014704,0.0585426,-1.43923,78.6805
31,1000,0.0589003,-0.000539948,0.0589028,-0.525224,80.4055
32,794.33,0.0592086,0.000143235,0.0592088,0.138607,82.2569
33,630.96,0.0592902,0.000694899,0.0592943,0.671492,83.9731
34,501.19,0.0596251,0.00116552,0.0596364,1.11984,85.7094
35,398.11,0.0599521,0.00156606,0.0599725,1.49633,87.4603
36,316.23,0.0603397,0.0019188,0.0603702,1.82139,89.2295
37,251.19,0.0607302,0.0022371,0.0607714,2.10964,90.9766
38,199.53,0.0611467,0.00253553,0.0611993,2.37449,92.7131
39,158.49,0.0615815,0.00282316,0.0616462,2.62485,94.4692
40,125.89,0.0620994,0.00310829,0.0621771,2.86546,96.2916
41,100,0.0626013,0.00339236,0.0626932,3.10182,98.0882
42,79.433,0.0631485,0.00365187,0.063254,3.30972,99.9165
43,63.096,0.0637757,0.00389873,0.0638947,3.49825,101.846
44,50.119,0.0643791,0.00411315,0.0645104,3.65563,103.928
45,39.811,0.0651096,0.00429454,0.065251,3.77369,105.897
46,31.623,0.0658797,0.00442177,0.0660279,3.83987,107.944
47,25.119,0.0666549,0.00448866,0.0668058,3.85258,110.024
48,19.953,0.0673946,0.00446521,0.0675424,3.79057,112.345
49,15.849,0.0682215,0.00438542,0.0683623,3.67803,114.713
50,12.589,0.0689944,0.00424362,0.0691248,3.51964,117.176
51,10,0.0696737,0.00404229,0.0697909,3.32043,119.871
52,7.9433,0.0703022,0.00380398,0.070405,3.0972,122.614
53,6.3096,0.0708494,0.00354394,0.070938,2.86359,125.43
54,5.0119,0.0713343,0.00328476,0.0714099,2.63646,128.268
55,3.9811,0.0717533,0.0030388,0.0718176,2.42506,131.092
56,3.1623,0.0721361,0.002817,0.0721911,2.23633,134.054
57,2.5119,0.0724297,0.00263306,0.0724776,2.08197,137.075
58,1.9953,0.0726708,0.00249643,0.0727136,1.96749,140.173
59,1.5849,0.0729693,0.00240309,0.0730089,1.88623,143.382
60,1.2589,0.0731624,0.00235657,0.0732004,1.84486,146.704
61,1,0.0733402,0.00236327,0.0733783,1.84562,150.367
62,0.79433,0.0735645,0.00243512,0.0736048,1.89591,154.098
63,0.63096,0.0737251,0.00256225,0.0737696,1.99046,157.968
64,0.50119,0.0739557,0.00278432,0.0740081,2.15608,162.246
65,0.39811,0.0741673,0.00304623,0.0742298,2.35196,166.911
66,0.31623,0.0743868,0.00340767,0.0744648,2.6229,172.117
67,0.25119,0.0746501,0.00393942,0.074754,3.0208,177.938
68,0.19953,0.074895,0.00445231,0.0750272,3.40208,184.562
69,0.15849,0.0751865,0.00519371,0.0753657,3.95158,192.276
70,0.12589,0.075459,0.00612829,0.0757075,4.643,201.297
71,0.1,0.0759489,0.00726113,0.0762952,5.46119,211.838